ExperimentName,Subject,Session,Clock.Information,DataFile.Basename,Display.RefreshRate,ExperimentVersion,Gender,Group,Handedness,HomeCountry,NativeLanguage,RandomSeed,RuntimeCapabilities,RuntimeVersion,RuntimeVersionExpected,SessionDate,SessionStartDateTimeUtc,SessionTime,StudioVersion,Block,BottomGender,Bottomprofession,ComprehensionQuestion.RESP,ComprehensionQuestion.RT,GenderCondition,HierarchyCondition,HighPosition,ItemNo,list1,list10,list11,list12,list13,list14,list15,list16,list17,list18,list19,list2,list20,list21,list22,list23,list24,list25,list26,list27,list28,list29,list3,list30,list31,list32,list4,list5,list6,list7,list8,list9,LowPosition,MainConditionTable,MainExperimentBlock1,MainExperimentBlock1.Cycle,MainExperimentBlock1.Sample,MainExperimentBlock2,MainExperimentBlock2.Cycle,MainExperimentBlock2.Sample,MainList,MainQuestion.RESP,MainQuestion.RT,MainQuestion.RTTime,MainScreen.RESP,MainScreen.RT,MainScreen.RTTime,PairName,PracticeDisplayTime,PracticeHigh,PracticeLow,PracticeQuestion,PracticeRun,PracticeRun.Cycle,PracticeRun.Sample,PracticeText.RESP,PracticeText.RT,Procedure,Question,QuestionDisplayTime,Running,TopGender,TopProfession
professions_englishA,2,1,"<?xml version=""1.0""?>\n<Clock xmlns:dt=""urn:schemas-microsoft-com:datatypes""><Description dt:dt=""string"">E-Prime Primary Realtime Clock</Description><StartTime><Timestamp dt:dt=""int"">0</Timestamp><DateUtc dt:dt=""string"">2017-02-01T11:51:26Z</DateUtc></StartTime><FrequencyChanges><FrequencyChange><Frequency dt:dt=""r8"">2338408</Frequency><Timestamp dt:dt=""r8"">183027155724</Timestamp><Current dt:dt=""r8"">0</Current><DateUtc dt:dt=""string"">2017-02-01T11:51:26Z</DateUtc></FrequencyChange></FrequencyChanges></Clock>\n",professions_englishA-002-1,60.061,1.0.0.107,female,1,right,Britain,English,-1655980684,Standard,2.0.10.353,2.0.10.353,02/01/2017,01/02/2017 11:51,11:51:26,2.0.10.248,1,,,,0,,,,,,,,,,,,,,,,,,,,,,,,,,,,,,,,,,,,,,,,,,,,,,,,,,,,,0,female master,male butler,,1,1,1,{UPARROW},1791,PracticeProcedure,,,PracticeRun,,
professions_englishA,2,1,"<?xml version=""1.0""?>\n<Clock xmlns:dt=""urn:schemas-microsoft-com:datatypes""><Description dt:dt=""string"">E-Prime Primary Realtime Clock</Description><StartTime><Timestamp dt:dt=""int"">0</Timestamp><DateUtc dt:dt=""string"">2017-02-01T11:51:26Z</DateUtc></StartTime><FrequencyChanges><FrequencyChange><Frequency dt:dt=""r8"">2338408</Frequency><Timestamp dt:dt=""r8"">183027155724</Timestamp><Current dt:dt=""r8"">0</Current><DateUtc dt:dt=""string"">2017-02-01T11:51:26Z</DateUtc></FrequencyChange></FrequencyChanges></Clock>\n",professions_englishA-002-1,60.061,1.0.0.107,female,1,right,Britain,English,-1655980684,Standard,2.0.10.353,2.0.10.353,02/01/2017,01/02/2017 11:51,11:51:26,2.0.10.248,2,,,{UPARROW},4166,,,,,,,,,,,,,,,,,,,,,,,,,,,,,,,,,,,,,,,,,,,,,,,,,,,,,15000,male head teacher,female teacher,Was the male at the top or the bottom? (PRESS UP OR DOWN ARROW),2,1,2,{UPARROW},1312,PracticeProcedure,,,PracticeRun,,
professions_englishA,2,1,"<?xml version=""1.0""?>\n<Clock xmlns:dt=""urn:schemas-microsoft-com:datatypes""><Description dt:dt=""string"">E-Prime Primary Realtime Clock</Description><StartTime><Timestamp dt:dt=""int"">0</Timestamp><DateUtc dt:dt=""string"">2017-02-01T11:51:26Z</DateUtc></StartTime><FrequencyChanges><FrequencyChange><Frequency dt:dt=""r8"">2338408</Frequency><Timestamp dt:dt=""r8"">183027155724</Timestamp><Current dt:dt=""r8"">0</Current><DateUtc dt:dt=""string"">2017-02-01T11:51:26Z</DateUtc></FrequencyChange></FrequencyChanges></Clock>\n",professions_englishA-002-1,60.061,1.0.0.107,female,1,right,Britain,English,-1655980684,Standard,2.0.10.353,2.0.10.353,02/01/2017,01/02/2017 11:51,11:51:26,2.0.10.248,3,,,,0,,,,,,,,,,,,,,,,,,,,,,,,,,,,,,,,,,,,,,,,,,,,,,,,,,,,,0,female cleaner,male landlord,,3,1,3,{DOWNARROW},1498,PracticeProcedure,,,PracticeRun,,
professions_englishA,2,1,"<?xml version=""1.0""?>\n<Clock xmlns:dt=""urn:schemas-microsoft-com:datatypes""><Description dt:dt=""string"">E-Prime Primary Realtime Clock</Description><StartTime><Timestamp dt:dt=""int"">0</Timestamp><DateUtc dt:dt=""string"">2017-02-01T11:51:26Z</DateUtc></StartTime><FrequencyChanges><FrequencyChange><Frequency dt:dt=""r8"">2338408</Frequency><Timestamp dt:dt=""r8"">183027155724</Timestamp><Current dt:dt=""r8"">0</Current><DateUtc dt:dt=""string"">2017-02-01T11:51:26Z</DateUtc></FrequencyChange></FrequencyChanges></Clock>\n",professions_englishA-002-1,60.061,1.0.0.107,female,1,right,Britain,English,-1655980684,Standard,2.0.10.353,2.0.10.353,02/01/2017,01/02/2017 11:51,11:51:26,2.0.10.248,4,,,,0,,,,,,,,,,,,,,,,,,,,,,,,,,,,,,,,,,,,,,,,,,,,,,,,,,,,,0,male football player,female football coach,,4,1,4,{DOWNARROW},2430,PracticeProcedure,,,PracticeRun,,
professions_englishA,2,1,"<?xml version=""1.0""?>\n<Clock xmlns:dt=""urn:schemas-microsoft-com:datatypes""><Description dt:dt=""string"">E-Prime Primary Realtime Clock</Description><StartTime><Timestamp dt:dt=""int"">0</Timestamp><DateUtc dt:dt=""string"">2017-02-01T11:51:26Z</DateUtc></StartTime><FrequencyChanges><FrequencyChange><Frequency dt:dt=""r8"">2338408</Frequency><Timestamp dt:dt=""r8"">183027155724</Timestamp><Current dt:dt=""r8"">0</Current><DateUtc dt:dt=""string"">2017-02-01T11:51:26Z</DateUtc></FrequencyChange></FrequencyChanges></Clock>\n",professions_englishA-002-1,60.061,1.0.0.107,female,1,right,Britain,English,-1655980684,Standard,2.0.10.353,2.0.10.353,02/01/2017,01/02/2017 11:51,11:51:26,2.0.10.248,5,,,,0,,,,,,,,,,,,,,,,,,,,,,,,,,,,,,,,,,,,,,,,,,,,,,,,,,,,,0,male president,female citizen,,5,1,5,{UPARROW},1392,PracticeProcedure,,,PracticeRun,,
professions_englishA,2,1,"<?xml version=""1.0""?>\n<Clock xmlns:dt=""urn:schemas-microsoft-com:datatypes""><Description dt:dt=""string"">E-Prime Primary Realtime Clock</Description><StartTime><Timestamp dt:dt=""int"">0</Timestamp><DateUtc dt:dt=""string"">2017-02-01T11:51:26Z</DateUtc></StartTime><FrequencyChanges><FrequencyChange><Frequency dt:dt=""r8"">2338408</Frequency><Timestamp dt:dt=""r8"">183027155724</Timestamp><Current dt:dt=""r8"">0</Current><DateUtc dt:dt=""string"">2017-02-01T11:51:26Z</DateUtc></FrequencyChange></FrequencyChanges></Clock>\n",professions_englishA-002-1,60.061,1.0.0.107,female,1,right,Britain,English,-1655980684,Standard,2.0.10.353,2.0.10.353,02/01/2017,01/02/2017 11:51,11:51:26,2.0.10.248,6,,,{DOWNARROW},2522,,,,,,,,,,,,,,,,,,,,,,,,,,,,,,,,,,,,,,,,,,,,,,,,,,,,,15000,female trainee,male expert,Was the female at the top or the bottom? (PRESS UP OR DOWN ARROW),6,1,6,{DOWNARROW},1595,PracticeProcedure,,,PracticeRun,,
professions_englishA,2,1,"<?xml version=""1.0""?>\n<Clock xmlns:dt=""urn:schemas-microsoft-com:datatypes""><Description dt:dt=""string"">E-Prime Primary Realtime Clock</Description><StartTime><Timestamp dt:dt=""int"">0</Timestamp><DateUtc dt:dt=""string"">2017-02-01T11:51:26Z</DateUtc></StartTime><FrequencyChanges><FrequencyChange><Frequency dt:dt=""r8"">2338408</Frequency><Timestamp dt:dt=""r8"">183027155724</Timestamp><Current dt:dt=""r8"">0</Current><DateUtc dt:dt=""string"">2017-02-01T11:51:26Z</DateUtc></FrequencyChange></FrequencyChanges></Clock>\n",professions_englishA-002-1,60.061,1.0.0.107,female,1,right,Britain,English,-1655980684,Standard,2.0.10.353,2.0.10.353,02/01/2017,01/02/2017 11:51,11:51:26,2.0.10.248,7,female,parent,,,MaleTop,BottomPower,parent,5,,,,,,,,,,,,,,,,,,,,,,,,,,,,3,,,,,child,1,1,1,1,,,,5,,0,0,{DOWNARROW},1000,290174,parent:child,,,,,,,,,,MainProcedure,,0,MainExperimentBlock1,male,child
professions_englishA,2,1,"<?xml version=""1.0""?>\n<Clock xmlns:dt=""urn:schemas-microsoft-com:datatypes""><Description dt:dt=""string"">E-Prime Primary Realtime Clock</Description><StartTime><Timestamp dt:dt=""int"">0</Timestamp><DateUtc dt:dt=""string"">2017-02-01T11:51:26Z</DateUtc></StartTime><FrequencyChanges><FrequencyChange><Frequency dt:dt=""r8"">2338408</Frequency><Timestamp dt:dt=""r8"">183027155724</Timestamp><Current dt:dt=""r8"">0</Current><DateUtc dt:dt=""string"">2017-02-01T11:51:26Z</DateUtc></FrequencyChange></FrequencyChanges></Clock>\n",professions_englishA-002-1,60.061,1.0.0.107,female,1,right,Britain,English,-1655980684,Standard,2.0.10.353,2.0.10.353,02/01/2017,01/02/2017 11:51,11:51:26,2.0.10.248,8,female,pilot,,,MaleTop,BottomPower,pilot,11,,,3,,,,,,,,,,,,,,,,,,,,,,,,,,,,,,flight attendant,1,1,1,2,,,,11,,0,0,{DOWNARROW},1658,293113,pilot:flight_attendant,,,,,,,,,,MainProcedure,,0,MainExperimentBlock1,male,flight attendant
professions_englishA,2,1,"<?xml version=""1.0""?>\n<Clock xmlns:dt=""urn:schemas-microsoft-com:datatypes""><Description dt:dt=""string"">E-Prime Primary Realtime Clock</Description><StartTime><Timestamp dt:dt=""int"">0</Timestamp><DateUtc dt:dt=""string"">2017-02-01T11:51:26Z</DateUtc></StartTime><FrequencyChanges><FrequencyChange><Frequency dt:dt=""r8"">2338408</Frequency><Timestamp dt:dt=""r8"">183027155724</Timestamp><Current dt:dt=""r8"">0</Current><DateUtc dt:dt=""string"">2017-02-01T11:51:26Z</DateUtc></FrequencyChange></FrequencyChanges></Clock>\n",professions_englishA-002-1,60.061,1.0.0.107,female,1,right,Britain,English,-1655980684,Standard,2.0.10.353,2.0.10.353,02/01/2017,01/02/2017 11:51,11:51:26,2.0.10.248,9,male,soldier,,,FemaleTop,TopPower,colonel,14,,,,,,2,,,,,,,,,,,,,,,,,,,,,,,,,,,soldier,1,1,1,3,,,,14,,0,0,{UPARROW},1756,296142,colonel:soldier,,,,,,,,,,MainProcedure,,0,MainExperimentBlock1,female,colonel
professions_englishA,2,1,"<?xml version=""1.0""?>\n<Clock xmlns:dt=""urn:schemas-microsoft-com:datatypes""><Description dt:dt=""string"">E-Prime Primary Realtime Clock</Description><StartTime><Timestamp dt:dt=""int"">0</Timestamp><DateUtc dt:dt=""string"">2017-02-01T11:51:26Z</DateUtc></StartTime><FrequencyChanges><FrequencyChange><Frequency dt:dt=""r8"">2338408</Frequency><Timestamp dt:dt=""r8"">183027155724</Timestamp><Current dt:dt=""r8"">0</Current><DateUtc dt:dt=""string"">2017-02-01T11:51:26Z</DateUtc></FrequencyChange></FrequencyChanges></Clock>\n",professions_englishA-002-1,60.061,1.0.0.107,female,1,right,Britain,English,-1655980684,Standard,2.0.10.353,2.0.10.353,02/01/2017,01/02/2017 11:51,11:51:26,2.0.10.248,10,male,parent,,,FemaleTop,BottomPower,parent,5,,,,,,,,,,,,,,,,,,,,,,,,,,,,4,,,,,child,1,1,1,4,,,,5,,0,0,{DOWNARROW},920,298336,parent:child,,,,,,,,,,MainProcedure,,0,MainExperimentBlock1,female,child
professions_englishA,2,1,"<?xml version=""1.0""?>\n<Clock xmlns:dt=""urn:schemas-microsoft-com:datatypes""><Description dt:dt=""string"">E-Prime Primary Realtime Clock</Description><StartTime><Timestamp dt:dt=""int"">0</Timestamp><DateUtc dt:dt=""string"">2017-02-01T11:51:26Z</DateUtc></StartTime><FrequencyChanges><FrequencyChange><Frequency dt:dt=""r8"">2338408</Frequency><Timestamp dt:dt=""r8"">183027155724</Timestamp><Current dt:dt=""r8"">0</Current><DateUtc dt:dt=""string"">2017-02-01T11:51:26Z</DateUtc></FrequencyChange></FrequencyChanges></Clock>\n",professions_englishA-002-1,60.061,1.0.0.107,female,1,right,Britain,English,-1655980684,Standard,2.0.10.353,2.0.10.353,02/01/2017,01/02/2017 11:51,11:51:26,2.0.10.248,11,female,general,,,MaleTop,BottomPower,general,22,,,,,,,,,,,,,,,3,,,,,,,,,,,,,,,,,,deputy,2,1,1,5,,,,22,{UPARROW},1326,303054,{UPARROW},1607,301221,general:deputy,,,,,,,,,,MainProcedure,Was the male at the top or bottom?,15000,MainExperimentBlock1,male,deputy
professions_englishA,2,1,"<?xml version=""1.0""?>\n<Clock xmlns:dt=""urn:schemas-microsoft-com:datatypes""><Description dt:dt=""string"">E-Prime Primary Realtime Clock</Description><StartTime><Timestamp dt:dt=""int"">0</Timestamp><DateUtc dt:dt=""string"">2017-02-01T11:51:26Z</DateUtc></StartTime><FrequencyChanges><FrequencyChange><Frequency dt:dt=""r8"">2338408</Frequency><Timestamp dt:dt=""r8"">183027155724</Timestamp><Current dt:dt=""r8"">0</Current><DateUtc dt:dt=""string"">2017-02-01T11:51:26Z</DateUtc></FrequencyChange></FrequencyChanges></Clock>\n",professions_englishA-002-1,60.061,1.0.0.107,female,1,right,Britain,English,-1655980684,Standard,2.0.10.353,2.0.10.353,02/01/2017,01/02/2017 11:51,11:51:26,2.0.10.248,12,female,boss,,,MaleTop,BottomPower,boss,27,,,,,,,,,,,,,,,,,,,,3,,,,,,,,,,,,,secretary,2,1,1,6,,,,27,{UPARROW},1418,306826,{DOWNARROW},1073,304899,boss:secretary,,,,,,,,,,MainProcedure,Was the male at the top or bottom?,15000,MainExperimentBlock1,male,secretary
professions_englishA,2,1,"<?xml version=""1.0""?>\n<Clock xmlns:dt=""urn:schemas-microsoft-com:datatypes""><Description dt:dt=""string"">E-Prime Primary Realtime Clock</Description><StartTime><Timestamp dt:dt=""int"">0</Timestamp><DateUtc dt:dt=""string"">2017-02-01T11:51:26Z</DateUtc></StartTime><FrequencyChanges><FrequencyChange><Frequency dt:dt=""r8"">2338408</Frequency><Timestamp dt:dt=""r8"">183027155724</Timestamp><Current dt:dt=""r8"">0</Current><DateUtc dt:dt=""string"">2017-02-01T11:51:26Z</DateUtc></FrequencyChange></FrequencyChanges></Clock>\n",professions_englishA-002-1,60.061,1.0.0.107,female,1,right,Britain,English,-1655980684,Standard,2.0.10.353,2.0.10.353,02/01/2017,01/02/2017 11:51,11:51:26,2.0.10.248,13,male,dancer,,,FemaleTop,TopPower,dance instructor,20,,,,,,,,,,,,,2,,,,,,,,,,,,,,,,,,,,dancer,3,1,1,7,,,,20,{UPARROW},809,310130,{UPARROW},1218,308807,dance_instructor:dancer,,,,,,,,,,MainProcedure,Was the female at the top or bottom?,15000,MainExperimentBlock1,female,dance instructor
professions_englishA,2,1,"<?xml version=""1.0""?>\n<Clock xmlns:dt=""urn:schemas-microsoft-com:datatypes""><Description dt:dt=""string"">E-Prime Primary Realtime Clock</Description><StartTime><Timestamp dt:dt=""int"">0</Timestamp><DateUtc dt:dt=""string"">2017-02-01T11:51:26Z</DateUtc></StartTime><FrequencyChanges><FrequencyChange><Frequency dt:dt=""r8"">2338408</Frequency><Timestamp dt:dt=""r8"">183027155724</Timestamp><Current dt:dt=""r8"">0</Current><DateUtc dt:dt=""string"">2017-02-01T11:51:26Z</DateUtc></FrequencyChange></FrequencyChanges></Clock>\n",professions_englishA-002-1,60.061,1.0.0.107,female,1,right,Britain,English,-1655980684,Standard,2.0.10.353,2.0.10.353,02/01/2017,01/02/2017 11:51,11:51:26,2.0.10.248,14,male,mechanic,,,FemaleTop,TopPower,engineer,25,,,,,,,,,,,,,,,,,,2,,,,,,,,,,,,,,,mechanic,1,1,1,8,,,,25,,0,0,{UPARROW},2196,313098,engineer:mechanic,,,,,,,,,,MainProcedure,,0,MainExperimentBlock1,female,engineer
professions_englishA,2,1,"<?xml version=""1.0""?>\n<Clock xmlns:dt=""urn:schemas-microsoft-com:datatypes""><Description dt:dt=""string"">E-Prime Primary Realtime Clock</Description><StartTime><Timestamp dt:dt=""int"">0</Timestamp><DateUtc dt:dt=""string"">2017-02-01T11:51:26Z</DateUtc></StartTime><FrequencyChanges><FrequencyChange><Frequency dt:dt=""r8"">2338408</Frequency><Timestamp dt:dt=""r8"">183027155724</Timestamp><Current dt:dt=""r8"">0</Current><DateUtc dt:dt=""string"">2017-02-01T11:51:26Z</DateUtc></FrequencyChange></FrequencyChanges></Clock>\n",professions_englishA-002-1,60.061,1.0.0.107,female,1,right,Britain,English,-1655980684,Standard,2.0.10.353,2.0.10.353,02/01/2017,01/02/2017 11:51,11:51:26,2.0.10.248,15,female,doctor,,,MaleTop,BottomPower,doctor,9,,,,,,,,,,,,,,,,,,,,,,,,,,,,,,,,3,nurse,1,1,1,9,,,,9,,0,0,{DOWNARROW},1085,315467,doctor:nurse,,,,,,,,,,MainProcedure,,0,MainExperimentBlock1,male,nurse
professions_englishA,2,1,"<?xml version=""1.0""?>\n<Clock xmlns:dt=""urn:schemas-microsoft-com:datatypes""><Description dt:dt=""string"">E-Prime Primary Realtime Clock</Description><StartTime><Timestamp dt:dt=""int"">0</Timestamp><DateUtc dt:dt=""string"">2017-02-01T11:51:26Z</DateUtc></StartTime><FrequencyChanges><FrequencyChange><Frequency dt:dt=""r8"">2338408</Frequency><Timestamp dt:dt=""r8"">183027155724</Timestamp><Current dt:dt=""r8"">0</Current><DateUtc dt:dt=""string"">2017-02-01T11:51:26Z</DateUtc></FrequencyChange></FrequencyChanges></Clock>\n",professions_englishA-002-1,60.061,1.0.0.107,female,1,right,Britain,English,-1655980684,Standard,2.0.10.353,2.0.10.353,02/01/2017,01/02/2017 11:51,11:51:26,2.0.10.248,16,female,monarch,,,MaleTop,BottomPower,monarch,13,,,,,3,,,,,,,,,,,,,,,,,,,,,,,,,,,,servant,1,1,1,10,,,,13,,0,0,{DOWNARROW},1322,318069,monarch:servant,,,,,,,,,,MainProcedure,,0,MainExperimentBlock1,male,servant
professions_englishA,2,1,"<?xml version=""1.0""?>\n<Clock xmlns:dt=""urn:schemas-microsoft-com:datatypes""><Description dt:dt=""string"">E-Prime Primary Realtime Clock</Description><StartTime><Timestamp dt:dt=""int"">0</Timestamp><DateUtc dt:dt=""string"">2017-02-01T11:51:26Z</DateUtc></StartTime><FrequencyChanges><FrequencyChange><Frequency dt:dt=""r8"">2338408</Frequency><Timestamp dt:dt=""r8"">183027155724</Timestamp><Current dt:dt=""r8"">0</Current><DateUtc dt:dt=""string"">2017-02-01T11:51:26Z</DateUtc></FrequencyChange></FrequencyChanges></Clock>\n",professions_englishA-002-1,60.061,1.0.0.107,female,1,right,Britain,English,-1655980684,Standard,2.0.10.353,2.0.10.353,02/01/2017,01/02/2017 11:51,11:51:26,2.0.10.248,17,female,junior stylist,,,MaleTop,TopPower,senior stylist,31,,,,,,,,,,,,,,,,,,,,,,,,,1,,,,,,,,junior stylist,1,1,1,11,,,,31,,0,0,{UPARROW},1116,320460,senior_stylist:stylist,,,,,,,,,,MainProcedure,,0,MainExperimentBlock1,male,senior stylist
professions_englishA,2,1,"<?xml version=""1.0""?>\n<Clock xmlns:dt=""urn:schemas-microsoft-com:datatypes""><Description dt:dt=""string"">E-Prime Primary Realtime Clock</Description><StartTime><Timestamp dt:dt=""int"">0</Timestamp><DateUtc dt:dt=""string"">2017-02-01T11:51:26Z</DateUtc></StartTime><FrequencyChanges><FrequencyChange><Frequency dt:dt=""r8"">2338408</Frequency><Timestamp dt:dt=""r8"">183027155724</Timestamp><Current dt:dt=""r8"">0</Current><DateUtc dt:dt=""string"">2017-02-01T11:51:26Z</DateUtc></FrequencyChange></FrequencyChanges></Clock>\n",professions_englishA-002-1,60.061,1.0.0.107,female,1,right,Britain,English,-1655980684,Standard,2.0.10.353,2.0.10.353,02/01/2017,01/02/2017 11:51,11:51:26,2.0.10.248,18,male,employer,,,FemaleTop,BottomPower,employer,10,,4,,,,,,,,,,,,,,,,,,,,,,,,,,,,,,,employee,1,1,1,12,,,,10,,0,0,{DOWNARROW},2094,323835,employer:employee,,,,,,,,,,MainProcedure,,0,MainExperimentBlock1,female,employee
professions_englishA,2,1,"<?xml version=""1.0""?>\n<Clock xmlns:dt=""urn:schemas-microsoft-com:datatypes""><Description dt:dt=""string"">E-Prime Primary Realtime Clock</Description><StartTime><Timestamp dt:dt=""int"">0</Timestamp><DateUtc dt:dt=""string"">2017-02-01T11:51:26Z</DateUtc></StartTime><FrequencyChanges><FrequencyChange><Frequency dt:dt=""r8"">2338408</Frequency><Timestamp dt:dt=""r8"">183027155724</Timestamp><Current dt:dt=""r8"">0</Current><DateUtc dt:dt=""string"">2017-02-01T11:51:26Z</DateUtc></FrequencyChange></FrequencyChanges></Clock>\n",professions_englishA-002-1,60.061,1.0.0.107,female,1,right,Britain,English,-1655980684,Standard,2.0.10.353,2.0.10.353,02/01/2017,01/02/2017 11:51,11:51:26,2.0.10.248,19,female,colonel,,,MaleTop,BottomPower,colonel,14,,,,,,3,,,,,,,,,,,,,,,,,,,,,,,,,,,soldier,1,1,1,13,,,,14,,0,0,{DOWNARROW},1152,326273,colonel:soldier,,,,,,,,,,MainProcedure,,0,MainExperimentBlock1,male,soldier
professions_englishA,2,1,"<?xml version=""1.0""?>\n<Clock xmlns:dt=""urn:schemas-microsoft-com:datatypes""><Description dt:dt=""string"">E-Prime Primary Realtime Clock</Description><StartTime><Timestamp dt:dt=""int"">0</Timestamp><DateUtc dt:dt=""string"">2017-02-01T11:51:26Z</DateUtc></StartTime><FrequencyChanges><FrequencyChange><Frequency dt:dt=""r8"">2338408</Frequency><Timestamp dt:dt=""r8"">183027155724</Timestamp><Current dt:dt=""r8"">0</Current><DateUtc dt:dt=""string"">2017-02-01T11:51:26Z</DateUtc></FrequencyChange></FrequencyChanges></Clock>\n",professions_englishA-002-1,60.061,1.0.0.107,female,1,right,Britain,English,-1655980684,Standard,2.0.10.353,2.0.10.353,02/01/2017,01/02/2017 11:51,11:51:26,2.0.10.248,20,female,publisher,,,MaleTop,BottomPower,publisher,26,,,,,,,,,,,,,,,,,,,3,,,,,,,,,,,,,,proofreader,1,1,1,14,,,,26,,0,0,{DOWNARROW},1172,328724,publisher:proofreader,,,,,,,,,,MainProcedure,,0,MainExperimentBlock1,male,proofreader
professions_englishA,2,1,"<?xml version=""1.0""?>\n<Clock xmlns:dt=""urn:schemas-microsoft-com:datatypes""><Description dt:dt=""string"">E-Prime Primary Realtime Clock</Description><StartTime><Timestamp dt:dt=""int"">0</Timestamp><DateUtc dt:dt=""string"">2017-02-01T11:51:26Z</DateUtc></StartTime><FrequencyChanges><FrequencyChange><Frequency dt:dt=""r8"">2338408</Frequency><Timestamp dt:dt=""r8"">183027155724</Timestamp><Current dt:dt=""r8"">0</Current><DateUtc dt:dt=""string"">2017-02-01T11:51:26Z</DateUtc></FrequencyChange></FrequencyChanges></Clock>\n",professions_englishA-002-1,60.061,1.0.0.107,female,1,right,Britain,English,-1655980684,Standard,2.0.10.353,2.0.10.353,02/01/2017,01/02/2017 11:51,11:51:26,2.0.10.248,21,female,dance instructor,,,MaleTop,BottomPower,dance instructor,20,,,,,,,,,,,,,3,,,,,,,,,,,,,,,,,,,,dancer,1,1,1,15,,,,20,,0,0,{DOWNARROW},913,330913,dance_instructor:dancer,,,,,,,,,,MainProcedure,,0,MainExperimentBlock1,male,dancer
professions_englishA,2,1,"<?xml version=""1.0""?>\n<Clock xmlns:dt=""urn:schemas-microsoft-com:datatypes""><Description dt:dt=""string"">E-Prime Primary Realtime Clock</Description><StartTime><Timestamp dt:dt=""int"">0</Timestamp><DateUtc dt:dt=""string"">2017-02-01T11:51:26Z</DateUtc></StartTime><FrequencyChanges><FrequencyChange><Frequency dt:dt=""r8"">2338408</Frequency><Timestamp dt:dt=""r8"">183027155724</Timestamp><Current dt:dt=""r8"">0</Current><DateUtc dt:dt=""string"">2017-02-01T11:51:26Z</DateUtc></FrequencyChange></FrequencyChanges></Clock>\n",professions_englishA-002-1,60.061,1.0.0.107,female,1,right,Britain,English,-1655980684,Standard,2.0.10.353,2.0.10.353,02/01/2017,01/02/2017 11:51,11:51:26,2.0.10.248,22,male,junior stylist,,,FemaleTop,TopPower,senior stylist,31,,,,,,,,,,,,,,,,,,,,,,,,,2,,,,,,,,junior stylist,1,1,1,16,,,,31,,0,0,{UPARROW},1042,333240,senior_stylist:stylist,,,,,,,,,,MainProcedure,,0,MainExperimentBlock1,female,senior stylist
professions_englishA,2,1,"<?xml version=""1.0""?>\n<Clock xmlns:dt=""urn:schemas-microsoft-com:datatypes""><Description dt:dt=""string"">E-Prime Primary Realtime Clock</Description><StartTime><Timestamp dt:dt=""int"">0</Timestamp><DateUtc dt:dt=""string"">2017-02-01T11:51:26Z</DateUtc></StartTime><FrequencyChanges><FrequencyChange><Frequency dt:dt=""r8"">2338408</Frequency><Timestamp dt:dt=""r8"">183027155724</Timestamp><Current dt:dt=""r8"">0</Current><DateUtc dt:dt=""string"">2017-02-01T11:51:26Z</DateUtc></FrequencyChange></FrequencyChanges></Clock>\n",professions_englishA-002-1,60.061,1.0.0.107,female,1,right,Britain,English,-1655980684,Standard,2.0.10.353,2.0.10.353,02/01/2017,01/02/2017 11:51,11:51:26,2.0.10.248,23,male,cook,,,FemaleTop,BottomPower,cook,30,,,,,,,,,,,,,,,,,,,,,,,,4,,,,,,,,,kitchen porter,1,1,1,17,,,,30,,0,0,{DOWNARROW},1761,336290,cook:porter,,,,,,,,,,MainProcedure,,0,MainExperimentBlock1,female,kitchen porter
professions_englishA,2,1,"<?xml version=""1.0""?>\n<Clock xmlns:dt=""urn:schemas-microsoft-com:datatypes""><Description dt:dt=""string"">E-Prime Primary Realtime Clock</Description><StartTime><Timestamp dt:dt=""int"">0</Timestamp><DateUtc dt:dt=""string"">2017-02-01T11:51:26Z</DateUtc></StartTime><FrequencyChanges><FrequencyChange><Frequency dt:dt=""r8"">2338408</Frequency><Timestamp dt:dt=""r8"">183027155724</Timestamp><Current dt:dt=""r8"">0</Current><DateUtc dt:dt=""string"">2017-02-01T11:51:26Z</DateUtc></FrequencyChange></FrequencyChanges></Clock>\n",professions_englishA-002-1,60.061,1.0.0.107,female,1,right,Britain,English,-1655980684,Standard,2.0.10.353,2.0.10.353,02/01/2017,01/02/2017 11:51,11:51:26,2.0.10.248,24,male,child,,,FemaleTop,TopPower,parent,5,,,,,,,,,,,,,,,,,,,,,,,,,,,,2,,,,,child,1,1,1,18,,,,5,,0,0,{UPARROW},814,338390,parent:child,,,,,,,,,,MainProcedure,,0,MainExperimentBlock1,female,parent
professions_englishA,2,1,"<?xml version=""1.0""?>\n<Clock xmlns:dt=""urn:schemas-microsoft-com:datatypes""><Description dt:dt=""string"">E-Prime Primary Realtime Clock</Description><StartTime><Timestamp dt:dt=""int"">0</Timestamp><DateUtc dt:dt=""string"">2017-02-01T11:51:26Z</DateUtc></StartTime><FrequencyChanges><FrequencyChange><Frequency dt:dt=""r8"">2338408</Frequency><Timestamp dt:dt=""r8"">183027155724</Timestamp><Current dt:dt=""r8"">0</Current><DateUtc dt:dt=""string"">2017-02-01T11:51:26Z</DateUtc></FrequencyChange></FrequencyChanges></Clock>\n",professions_englishA-002-1,60.061,1.0.0.107,female,1,right,Britain,English,-1655980684,Standard,2.0.10.353,2.0.10.353,02/01/2017,01/02/2017 11:51,11:51:26,2.0.10.248,25,male,dance instructor,,,FemaleTop,BottomPower,dance instructor,20,,,,,,,,,,,,,4,,,,,,,,,,,,,,,,,,,,dancer,1,1,1,19,,,,20,,0,0,{DOWNARROW},1017,340690,dance_instructor:dancer,,,,,,,,,,MainProcedure,,0,MainExperimentBlock1,female,dancer
professions_englishA,2,1,"<?xml version=""1.0""?>\n<Clock xmlns:dt=""urn:schemas-microsoft-com:datatypes""><Description dt:dt=""string"">E-Prime Primary Realtime Clock</Description><StartTime><Timestamp dt:dt=""int"">0</Timestamp><DateUtc dt:dt=""string"">2017-02-01T11:51:26Z</DateUtc></StartTime><FrequencyChanges><FrequencyChange><Frequency dt:dt=""r8"">2338408</Frequency><Timestamp dt:dt=""r8"">183027155724</Timestamp><Current dt:dt=""r8"">0</Current><DateUtc dt:dt=""string"">2017-02-01T11:51:26Z</DateUtc></FrequencyChange></FrequencyChanges></Clock>\n",professions_englishA-002-1,60.061,1.0.0.107,female,1,right,Britain,English,-1655980684,Standard,2.0.10.353,2.0.10.353,02/01/2017,01/02/2017 11:51,11:51:26,2.0.10.248,26,female,waiter,,,MaleTop,TopPower,restaurant owner,28,,,,,,,,,,,,,,,,,,,,,1,,,,,,,,,,,,waiter,1,1,1,20,,,,28,,0,0,{UPARROW},1146,343117,restaurant_owner:waiter,,,,,,,,,,MainProcedure,,0,MainExperimentBlock1,male,restaurant owner
professions_englishA,2,1,"<?xml version=""1.0""?>\n<Clock xmlns:dt=""urn:schemas-microsoft-com:datatypes""><Description dt:dt=""string"">E-Prime Primary Realtime Clock</Description><StartTime><Timestamp dt:dt=""int"">0</Timestamp><DateUtc dt:dt=""string"">2017-02-01T11:51:26Z</DateUtc></StartTime><FrequencyChanges><FrequencyChange><Frequency dt:dt=""r8"">2338408</Frequency><Timestamp dt:dt=""r8"">183027155724</Timestamp><Current dt:dt=""r8"">0</Current><DateUtc dt:dt=""string"">2017-02-01T11:51:26Z</DateUtc></FrequencyChange></FrequencyChanges></Clock>\n",professions_englishA-002-1,60.061,1.0.0.107,female,1,right,Britain,English,-1655980684,Standard,2.0.10.353,2.0.10.353,02/01/2017,01/02/2017 11:51,11:51:26,2.0.10.248,27,female,flight attendant,,,MaleTop,TopPower,pilot,11,,,1,,,,,,,,,,,,,,,,,,,,,,,,,,,,,,flight attendant,1,1,1,21,,,,11,,0,0,{UPARROW},863,345265,pilot:flight_attendant,,,,,,,,,,MainProcedure,,0,MainExperimentBlock1,male,pilot
professions_englishA,2,1,"<?xml version=""1.0""?>\n<Clock xmlns:dt=""urn:schemas-microsoft-com:datatypes""><Description dt:dt=""string"">E-Prime Primary Realtime Clock</Description><StartTime><Timestamp dt:dt=""int"">0</Timestamp><DateUtc dt:dt=""string"">2017-02-01T11:51:26Z</DateUtc></StartTime><FrequencyChanges><FrequencyChange><Frequency dt:dt=""r8"">2338408</Frequency><Timestamp dt:dt=""r8"">183027155724</Timestamp><Current dt:dt=""r8"">0</Current><DateUtc dt:dt=""string"">2017-02-01T11:51:26Z</DateUtc></FrequencyChange></FrequencyChanges></Clock>\n",professions_englishA-002-1,60.061,1.0.0.107,female,1,right,Britain,English,-1655980684,Standard,2.0.10.353,2.0.10.353,02/01/2017,01/02/2017 11:51,11:51:26,2.0.10.248,28,male,engineer,,,FemaleTop,BottomPower,engineer,25,,,,,,,,,,,,,,,,,,4,,,,,,,,,,,,,,,mechanic,3,1,1,22,,,,25,{UPARROW},1559,349407,{UPARROW},790,347340,engineer:mechanic,,,,,,,,,,MainProcedure,Was the female at the top or bottom?,15000,MainExperimentBlock1,female,mechanic
professions_englishA,2,1,"<?xml version=""1.0""?>\n<Clock xmlns:dt=""urn:schemas-microsoft-com:datatypes""><Description dt:dt=""string"">E-Prime Primary Realtime Clock</Description><StartTime><Timestamp dt:dt=""int"">0</Timestamp><DateUtc dt:dt=""string"">2017-02-01T11:51:26Z</DateUtc></StartTime><FrequencyChanges><FrequencyChange><Frequency dt:dt=""r8"">2338408</Frequency><Timestamp dt:dt=""r8"">183027155724</Timestamp><Current dt:dt=""r8"">0</Current><DateUtc dt:dt=""string"">2017-02-01T11:51:26Z</DateUtc></FrequencyChange></FrequencyChanges></Clock>\n",professions_englishA-002-1,60.061,1.0.0.107,female,1,right,Britain,English,-1655980684,Standard,2.0.10.353,2.0.10.353,02/01/2017,01/02/2017 11:51,11:51:26,2.0.10.248,29,female,shop manager,,,MaleTop,BottomPower,shop manager,18,,,,,,,,,,3,,,,,,,,,,,,,,,,,,,,,,,cashier,1,1,1,23,,,,18,,0,0,{DOWNARROW},1438,351617,shop_manager:cashier,,,,,,,,,,MainProcedure,,0,MainExperimentBlock1,male,cashier
professions_englishA,2,1,"<?xml version=""1.0""?>\n<Clock xmlns:dt=""urn:schemas-microsoft-com:datatypes""><Description dt:dt=""string"">E-Prime Primary Realtime Clock</Description><StartTime><Timestamp dt:dt=""int"">0</Timestamp><DateUtc dt:dt=""string"">2017-02-01T11:51:26Z</DateUtc></StartTime><FrequencyChanges><FrequencyChange><Frequency dt:dt=""r8"">2338408</Frequency><Timestamp dt:dt=""r8"">183027155724</Timestamp><Current dt:dt=""r8"">0</Current><DateUtc dt:dt=""string"">2017-02-01T11:51:26Z</DateUtc></FrequencyChange></FrequencyChanges></Clock>\n",professions_englishA-002-1,60.061,1.0.0.107,female,1,right,Britain,English,-1655980684,Standard,2.0.10.353,2.0.10.353,02/01/2017,01/02/2017 11:51,11:51:26,2.0.10.248,30,male,athlete,,,FemaleTop,TopPower,coach,2,,,,,,,,,,,,2,,,,,,,,,,,,,,,,,,,,,athlete,1,1,1,24,,,,2,,0,0,{UPARROW},1620,354513,coach:athlete,,,,,,,,,,MainProcedure,,0,MainExperimentBlock1,female,coach
professions_englishA,2,1,"<?xml version=""1.0""?>\n<Clock xmlns:dt=""urn:schemas-microsoft-com:datatypes""><Description dt:dt=""string"">E-Prime Primary Realtime Clock</Description><StartTime><Timestamp dt:dt=""int"">0</Timestamp><DateUtc dt:dt=""string"">2017-02-01T11:51:26Z</DateUtc></StartTime><FrequencyChanges><FrequencyChange><Frequency dt:dt=""r8"">2338408</Frequency><Timestamp dt:dt=""r8"">183027155724</Timestamp><Current dt:dt=""r8"">0</Current><DateUtc dt:dt=""string"">2017-02-01T11:51:26Z</DateUtc></FrequencyChange></FrequencyChanges></Clock>\n",professions_englishA-002-1,60.061,1.0.0.107,female,1,right,Britain,English,-1655980684,Standard,2.0.10.353,2.0.10.353,02/01/2017,01/02/2017 11:51,11:51:26,2.0.10.248,31,male,surgeon,,,FemaleTop,BottomPower,surgeon,15,,,,,,,4,,,,,,,,,,,,,,,,,,,,,,,,,,patient,1,1,1,25,,,,15,,0,0,{DOWNARROW},835,356625,surgeon:patient,,,,,,,,,,MainProcedure,,0,MainExperimentBlock1,female,patient
professions_englishA,2,1,"<?xml version=""1.0""?>\n<Clock xmlns:dt=""urn:schemas-microsoft-com:datatypes""><Description dt:dt=""string"">E-Prime Primary Realtime Clock</Description><StartTime><Timestamp dt:dt=""int"">0</Timestamp><DateUtc dt:dt=""string"">2017-02-01T11:51:26Z</DateUtc></StartTime><FrequencyChanges><FrequencyChange><Frequency dt:dt=""r8"">2338408</Frequency><Timestamp dt:dt=""r8"">183027155724</Timestamp><Current dt:dt=""r8"">0</Current><DateUtc dt:dt=""string"">2017-02-01T11:51:26Z</DateUtc></FrequencyChange></FrequencyChanges></Clock>\n",professions_englishA-002-1,60.061,1.0.0.107,female,1,right,Britain,English,-1655980684,Standard,2.0.10.353,2.0.10.353,02/01/2017,01/02/2017 11:51,11:51:26,2.0.10.248,32,female,architect,,,MaleTop,BottomPower,architect,21,,,,,,,,,,,,,,3,,,,,,,,,,,,,,,,,,,builder,1,1,1,26,,,,21,,0,0,{DOWNARROW},872,358777,architector:builder,,,,,,,,,,MainProcedure,,0,MainExperimentBlock1,male,builder
professions_englishA,2,1,"<?xml version=""1.0""?>\n<Clock xmlns:dt=""urn:schemas-microsoft-com:datatypes""><Description dt:dt=""string"">E-Prime Primary Realtime Clock</Description><StartTime><Timestamp dt:dt=""int"">0</Timestamp><DateUtc dt:dt=""string"">2017-02-01T11:51:26Z</DateUtc></StartTime><FrequencyChanges><FrequencyChange><Frequency dt:dt=""r8"">2338408</Frequency><Timestamp dt:dt=""r8"">183027155724</Timestamp><Current dt:dt=""r8"">0</Current><DateUtc dt:dt=""string"">2017-02-01T11:51:26Z</DateUtc></FrequencyChange></FrequencyChanges></Clock>\n",professions_englishA-002-1,60.061,1.0.0.107,female,1,right,Britain,English,-1655980684,Standard,2.0.10.353,2.0.10.353,02/01/2017,01/02/2017 11:51,11:51:26,2.0.10.248,33,male,officer,,,FemaleTop,BottomPower,officer,24,,,,,,,,,,,,,,,,,4,,,,,,,,,,,,,,,,cadet,1,1,1,27,,,,24,,0,0,{DOWNARROW},1141,361194,officer:cadet,,,,,,,,,,MainProcedure,,0,MainExperimentBlock1,female,cadet
professions_englishA,2,1,"<?xml version=""1.0""?>\n<Clock xmlns:dt=""urn:schemas-microsoft-com:datatypes""><Description dt:dt=""string"">E-Prime Primary Realtime Clock</Description><StartTime><Timestamp dt:dt=""int"">0</Timestamp><DateUtc dt:dt=""string"">2017-02-01T11:51:26Z</DateUtc></StartTime><FrequencyChanges><FrequencyChange><Frequency dt:dt=""r8"">2338408</Frequency><Timestamp dt:dt=""r8"">183027155724</Timestamp><Current dt:dt=""r8"">0</Current><DateUtc dt:dt=""string"">2017-02-01T11:51:26Z</DateUtc></FrequencyChange></FrequencyChanges></Clock>\n",professions_englishA-002-1,60.061,1.0.0.107,female,1,right,Britain,English,-1655980684,Standard,2.0.10.353,2.0.10.353,02/01/2017,01/02/2017 11:51,11:51:26,2.0.10.248,34,female,secretary,,,MaleTop,TopPower,boss,27,,,,,,,,,,,,,,,,,,,,1,,,,,,,,,,,,,secretary,1,1,1,28,,,,27,,0,0,{UPARROW},1158,363625,boss:secretary,,,,,,,,,,MainProcedure,,0,MainExperimentBlock1,male,boss
professions_englishA,2,1,"<?xml version=""1.0""?>\n<Clock xmlns:dt=""urn:schemas-microsoft-com:datatypes""><Description dt:dt=""string"">E-Prime Primary Realtime Clock</Description><StartTime><Timestamp dt:dt=""int"">0</Timestamp><DateUtc dt:dt=""string"">2017-02-01T11:51:26Z</DateUtc></StartTime><FrequencyChanges><FrequencyChange><Frequency dt:dt=""r8"">2338408</Frequency><Timestamp dt:dt=""r8"">183027155724</Timestamp><Current dt:dt=""r8"">0</Current><DateUtc dt:dt=""string"">2017-02-01T11:51:26Z</DateUtc></FrequencyChange></FrequencyChanges></Clock>\n",professions_englishA-002-1,60.061,1.0.0.107,female,1,right,Britain,English,-1655980684,Standard,2.0.10.353,2.0.10.353,02/01/2017,01/02/2017 11:51,11:51:26,2.0.10.248,35,male,labourer,,,FemaleTop,TopPower,landowner,32,,,,,,,,,,,,,,,,,,,,,,,,,,2,,,,,,,labourer,1,1,1,29,,,,32,,0,0,{UPARROW},1186,366084,landowner:labourer,,,,,,,,,,MainProcedure,,0,MainExperimentBlock1,female,landowner
professions_englishA,2,1,"<?xml version=""1.0""?>\n<Clock xmlns:dt=""urn:schemas-microsoft-com:datatypes""><Description dt:dt=""string"">E-Prime Primary Realtime Clock</Description><StartTime><Timestamp dt:dt=""int"">0</Timestamp><DateUtc dt:dt=""string"">2017-02-01T11:51:26Z</DateUtc></StartTime><FrequencyChanges><FrequencyChange><Frequency dt:dt=""r8"">2338408</Frequency><Timestamp dt:dt=""r8"">183027155724</Timestamp><Current dt:dt=""r8"">0</Current><DateUtc dt:dt=""string"">2017-02-01T11:51:26Z</DateUtc></FrequencyChange></FrequencyChanges></Clock>\n",professions_englishA-002-1,60.061,1.0.0.107,female,1,right,Britain,English,-1655980684,Standard,2.0.10.353,2.0.10.353,02/01/2017,01/02/2017 11:51,11:51:26,2.0.10.248,36,male,judge,,,FemaleTop,BottomPower,judge,6,,,,,,,,,,,,,,,,,,,,,,,,,,,,,4,,,,law clerk,3,1,1,30,,,,6,{UPARROW},1160,370037,{DOWNARROW},1009,368371,judge:clerk,,,,,,,,,,MainProcedure,Was the female at the top or bottom?,15000,MainExperimentBlock1,female,law clerk
professions_englishA,2,1,"<?xml version=""1.0""?>\n<Clock xmlns:dt=""urn:schemas-microsoft-com:datatypes""><Description dt:dt=""string"">E-Prime Primary Realtime Clock</Description><StartTime><Timestamp dt:dt=""int"">0</Timestamp><DateUtc dt:dt=""string"">2017-02-01T11:51:26Z</DateUtc></StartTime><FrequencyChanges><FrequencyChange><Frequency dt:dt=""r8"">2338408</Frequency><Timestamp dt:dt=""r8"">183027155724</Timestamp><Current dt:dt=""r8"">0</Current><DateUtc dt:dt=""string"">2017-02-01T11:51:26Z</DateUtc></FrequencyChange></FrequencyChanges></Clock>\n",professions_englishA-002-1,60.061,1.0.0.107,female,1,right,Britain,English,-1655980684,Standard,2.0.10.353,2.0.10.353,02/01/2017,01/02/2017 11:51,11:51:26,2.0.10.248,37,male,sailor,,,FemaleTop,TopPower,captain,3,,,,,,,,,,,,,,,,,,,,,,,2,,,,,,,,,,sailor,1,1,1,31,,,,3,,0,0,{UPARROW},957,371766,captain:sailor,,,,,,,,,,MainProcedure,,0,MainExperimentBlock1,female,captain
professions_englishA,2,1,"<?xml version=""1.0""?>\n<Clock xmlns:dt=""urn:schemas-microsoft-com:datatypes""><Description dt:dt=""string"">E-Prime Primary Realtime Clock</Description><StartTime><Timestamp dt:dt=""int"">0</Timestamp><DateUtc dt:dt=""string"">2017-02-01T11:51:26Z</DateUtc></StartTime><FrequencyChanges><FrequencyChange><Frequency dt:dt=""r8"">2338408</Frequency><Timestamp dt:dt=""r8"">183027155724</Timestamp><Current dt:dt=""r8"">0</Current><DateUtc dt:dt=""string"">2017-02-01T11:51:26Z</DateUtc></FrequencyChange></FrequencyChanges></Clock>\n",professions_englishA-002-1,60.061,1.0.0.107,female,1,right,Britain,English,-1655980684,Standard,2.0.10.353,2.0.10.353,02/01/2017,01/02/2017 11:51,11:51:26,2.0.10.248,38,female,landowner,,,MaleTop,BottomPower,landowner,32,,,,,,,,,,,,,,,,,,,,,,,,,,3,,,,,,,labourer,1,1,1,32,,,,32,,0,0,{DOWNARROW},2122,375162,landowner:labourer,,,,,,,,,,MainProcedure,,0,MainExperimentBlock1,male,labourer
professions_englishA,2,1,"<?xml version=""1.0""?>\n<Clock xmlns:dt=""urn:schemas-microsoft-com:datatypes""><Description dt:dt=""string"">E-Prime Primary Realtime Clock</Description><StartTime><Timestamp dt:dt=""int"">0</Timestamp><DateUtc dt:dt=""string"">2017-02-01T11:51:26Z</DateUtc></StartTime><FrequencyChanges><FrequencyChange><Frequency dt:dt=""r8"">2338408</Frequency><Timestamp dt:dt=""r8"">183027155724</Timestamp><Current dt:dt=""r8"">0</Current><DateUtc dt:dt=""string"">2017-02-01T11:51:26Z</DateUtc></FrequencyChange></FrequencyChanges></Clock>\n",professions_englishA-002-1,60.061,1.0.0.107,female,1,right,Britain,English,-1655980684,Standard,2.0.10.353,2.0.10.353,02/01/2017,01/02/2017 11:51,11:51:26,2.0.10.248,39,male,bank manager,,,FemaleTop,BottomPower,bank manager,29,,,,,,,,,,,,,,,,,,,,,,4,,,,,,,,,,,bank clerk,1,1,1,33,,,,29,,0,0,{DOWNARROW},1490,377926,bank_manger:clerk,,,,,,,,,,MainProcedure,,0,MainExperimentBlock1,female,bank clerk
professions_englishA,2,1,"<?xml version=""1.0""?>\n<Clock xmlns:dt=""urn:schemas-microsoft-com:datatypes""><Description dt:dt=""string"">E-Prime Primary Realtime Clock</Description><StartTime><Timestamp dt:dt=""int"">0</Timestamp><DateUtc dt:dt=""string"">2017-02-01T11:51:26Z</DateUtc></StartTime><FrequencyChanges><FrequencyChange><Frequency dt:dt=""r8"">2338408</Frequency><Timestamp dt:dt=""r8"">183027155724</Timestamp><Current dt:dt=""r8"">0</Current><DateUtc dt:dt=""string"">2017-02-01T11:51:26Z</DateUtc></FrequencyChange></FrequencyChanges></Clock>\n",professions_englishA-002-1,60.061,1.0.0.107,female,1,right,Britain,English,-1655980684,Standard,2.0.10.353,2.0.10.353,02/01/2017,01/02/2017 11:51,11:51:26,2.0.10.248,40,female,law clerk,,,MaleTop,TopPower,judge,6,,,,,,,,,,,,,,,,,,,,,,,,,,,,,1,,,,law clerk,1,1,1,34,,,,6,,0,0,{UPARROW},1006,380206,judge:clerk,,,,,,,,,,MainProcedure,,0,MainExperimentBlock1,male,judge
professions_englishA,2,1,"<?xml version=""1.0""?>\n<Clock xmlns:dt=""urn:schemas-microsoft-com:datatypes""><Description dt:dt=""string"">E-Prime Primary Realtime Clock</Description><StartTime><Timestamp dt:dt=""int"">0</Timestamp><DateUtc dt:dt=""string"">2017-02-01T11:51:26Z</DateUtc></StartTime><FrequencyChanges><FrequencyChange><Frequency dt:dt=""r8"">2338408</Frequency><Timestamp dt:dt=""r8"">183027155724</Timestamp><Current dt:dt=""r8"">0</Current><DateUtc dt:dt=""string"">2017-02-01T11:51:26Z</DateUtc></FrequencyChange></FrequencyChanges></Clock>\n",professions_englishA-002-1,60.061,1.0.0.107,female,1,right,Britain,English,-1655980684,Standard,2.0.10.353,2.0.10.353,02/01/2017,01/02/2017 11:51,11:51:26,2.0.10.248,41,male,student,,,FemaleTop,TopPower,professor,16,,,,,,,,2,,,,,,,,,,,,,,,,,,,,,,,,,student,1,1,1,35,,,,16,,0,0,{UPARROW},1167,382648,professor:student,,,,,,,,,,MainProcedure,,0,MainExperimentBlock1,female,professor
professions_englishA,2,1,"<?xml version=""1.0""?>\n<Clock xmlns:dt=""urn:schemas-microsoft-com:datatypes""><Description dt:dt=""string"">E-Prime Primary Realtime Clock</Description><StartTime><Timestamp dt:dt=""int"">0</Timestamp><DateUtc dt:dt=""string"">2017-02-01T11:51:26Z</DateUtc></StartTime><FrequencyChanges><FrequencyChange><Frequency dt:dt=""r8"">2338408</Frequency><Timestamp dt:dt=""r8"">183027155724</Timestamp><Current dt:dt=""r8"">0</Current><DateUtc dt:dt=""string"">2017-02-01T11:51:26Z</DateUtc></FrequencyChange></FrequencyChanges></Clock>\n",professions_englishA-002-1,60.061,1.0.0.107,female,1,right,Britain,English,-1655980684,Standard,2.0.10.353,2.0.10.353,02/01/2017,01/02/2017 11:51,11:51:26,2.0.10.248,42,male,waiter,,,FemaleTop,TopPower,restaurant owner,28,,,,,,,,,,,,,,,,,,,,,2,,,,,,,,,,,,waiter,1,1,1,36,,,,28,,0,0,{UPARROW},1006,384935,restaurant_owner:waiter,,,,,,,,,,MainProcedure,,0,MainExperimentBlock1,female,restaurant owner
professions_englishA,2,1,"<?xml version=""1.0""?>\n<Clock xmlns:dt=""urn:schemas-microsoft-com:datatypes""><Description dt:dt=""string"">E-Prime Primary Realtime Clock</Description><StartTime><Timestamp dt:dt=""int"">0</Timestamp><DateUtc dt:dt=""string"">2017-02-01T11:51:26Z</DateUtc></StartTime><FrequencyChanges><FrequencyChange><Frequency dt:dt=""r8"">2338408</Frequency><Timestamp dt:dt=""r8"">183027155724</Timestamp><Current dt:dt=""r8"">0</Current><DateUtc dt:dt=""string"">2017-02-01T11:51:26Z</DateUtc></FrequencyChange></FrequencyChanges></Clock>\n",professions_englishA-002-1,60.061,1.0.0.107,female,1,right,Britain,English,-1655980684,Standard,2.0.10.353,2.0.10.353,02/01/2017,01/02/2017 11:51,11:51:26,2.0.10.248,43,male,restaurant owner,,,FemaleTop,BottomPower,restaurant owner,28,,,,,,,,,,,,,,,,,,,,,4,,,,,,,,,,,,waiter,1,1,1,37,,,,28,,0,0,{DOWNARROW},799,387009,restaurant_owner:waiter,,,,,,,,,,MainProcedure,,0,MainExperimentBlock1,female,waiter
professions_englishA,2,1,"<?xml version=""1.0""?>\n<Clock xmlns:dt=""urn:schemas-microsoft-com:datatypes""><Description dt:dt=""string"">E-Prime Primary Realtime Clock</Description><StartTime><Timestamp dt:dt=""int"">0</Timestamp><DateUtc dt:dt=""string"">2017-02-01T11:51:26Z</DateUtc></StartTime><FrequencyChanges><FrequencyChange><Frequency dt:dt=""r8"">2338408</Frequency><Timestamp dt:dt=""r8"">183027155724</Timestamp><Current dt:dt=""r8"">0</Current><DateUtc dt:dt=""string"">2017-02-01T11:51:26Z</DateUtc></FrequencyChange></FrequencyChanges></Clock>\n",professions_englishA-002-1,60.061,1.0.0.107,female,1,right,Britain,English,-1655980684,Standard,2.0.10.353,2.0.10.353,02/01/2017,01/02/2017 11:51,11:51:26,2.0.10.248,44,male,veterinary assistant,,,FemaleTop,TopPower,vet,19,,,,,,,,,,,2,,,,,,,,,,,,,,,,,,,,,,veterinary assistant,1,1,1,38,,,,19,,0,0,{UPARROW},1665,389956,vet:assistant,,,,,,,,,,MainProcedure,,0,MainExperimentBlock1,female,vet
professions_englishA,2,1,"<?xml version=""1.0""?>\n<Clock xmlns:dt=""urn:schemas-microsoft-com:datatypes""><Description dt:dt=""string"">E-Prime Primary Realtime Clock</Description><StartTime><Timestamp dt:dt=""int"">0</Timestamp><DateUtc dt:dt=""string"">2017-02-01T11:51:26Z</DateUtc></StartTime><FrequencyChanges><FrequencyChange><Frequency dt:dt=""r8"">2338408</Frequency><Timestamp dt:dt=""r8"">183027155724</Timestamp><Current dt:dt=""r8"">0</Current><DateUtc dt:dt=""string"">2017-02-01T11:51:26Z</DateUtc></FrequencyChange></FrequencyChanges></Clock>\n",professions_englishA-002-1,60.061,1.0.0.107,female,1,right,Britain,English,-1655980684,Standard,2.0.10.353,2.0.10.353,02/01/2017,01/02/2017 11:51,11:51:26,2.0.10.248,45,male,cashier,,,FemaleTop,TopPower,shop manager,18,,,,,,,,,,2,,,,,,,,,,,,,,,,,,,,,,,cashier,1,1,1,39,,,,18,,0,0,{DOWNARROW},827,392065,shop_manager:cashier,,,,,,,,,,MainProcedure,,0,MainExperimentBlock1,female,shop manager
professions_englishA,2,1,"<?xml version=""1.0""?>\n<Clock xmlns:dt=""urn:schemas-microsoft-com:datatypes""><Description dt:dt=""string"">E-Prime Primary Realtime Clock</Description><StartTime><Timestamp dt:dt=""int"">0</Timestamp><DateUtc dt:dt=""string"">2017-02-01T11:51:26Z</DateUtc></StartTime><FrequencyChanges><FrequencyChange><Frequency dt:dt=""r8"">2338408</Frequency><Timestamp dt:dt=""r8"">183027155724</Timestamp><Current dt:dt=""r8"">0</Current><DateUtc dt:dt=""string"">2017-02-01T11:51:26Z</DateUtc></FrequencyChange></FrequencyChanges></Clock>\n",professions_englishA-002-1,60.061,1.0.0.107,female,1,right,Britain,English,-1655980684,Standard,2.0.10.353,2.0.10.353,02/01/2017,01/02/2017 11:51,11:51:26,2.0.10.248,46,female,employer,,,MaleTop,BottomPower,employer,10,,3,,,,,,,,,,,,,,,,,,,,,,,,,,,,,,,employee,1,1,1,40,,,,10,,0,0,{DOWNARROW},1464,394817,employer:employee,,,,,,,,,,MainProcedure,,0,MainExperimentBlock1,male,employee
professions_englishA,2,1,"<?xml version=""1.0""?>\n<Clock xmlns:dt=""urn:schemas-microsoft-com:datatypes""><Description dt:dt=""string"">E-Prime Primary Realtime Clock</Description><StartTime><Timestamp dt:dt=""int"">0</Timestamp><DateUtc dt:dt=""string"">2017-02-01T11:51:26Z</DateUtc></StartTime><FrequencyChanges><FrequencyChange><Frequency dt:dt=""r8"">2338408</Frequency><Timestamp dt:dt=""r8"">183027155724</Timestamp><Current dt:dt=""r8"">0</Current><DateUtc dt:dt=""string"">2017-02-01T11:51:26Z</DateUtc></FrequencyChange></FrequencyChanges></Clock>\n",professions_englishA-002-1,60.061,1.0.0.107,female,1,right,Britain,English,-1655980684,Standard,2.0.10.353,2.0.10.353,02/01/2017,01/02/2017 11:51,11:51:26,2.0.10.248,47,male,pupil,,,FemaleTop,TopPower,teacher,17,,,,,,,,,2,,,,,,,,,,,,,,,,,,,,,,,,pupil,1,1,1,41,,,,17,,0,0,{UPARROW},1571,397671,teacher:pupil,,,,,,,,,,MainProcedure,,0,MainExperimentBlock1,female,teacher
professions_englishA,2,1,"<?xml version=""1.0""?>\n<Clock xmlns:dt=""urn:schemas-microsoft-com:datatypes""><Description dt:dt=""string"">E-Prime Primary Realtime Clock</Description><StartTime><Timestamp dt:dt=""int"">0</Timestamp><DateUtc dt:dt=""string"">2017-02-01T11:51:26Z</DateUtc></StartTime><FrequencyChanges><FrequencyChange><Frequency dt:dt=""r8"">2338408</Frequency><Timestamp dt:dt=""r8"">183027155724</Timestamp><Current dt:dt=""r8"">0</Current><DateUtc dt:dt=""string"">2017-02-01T11:51:26Z</DateUtc></FrequencyChange></FrequencyChanges></Clock>\n",professions_englishA-002-1,60.061,1.0.0.107,female,1,right,Britain,English,-1655980684,Standard,2.0.10.353,2.0.10.353,02/01/2017,01/02/2017 11:51,11:51:26,2.0.10.248,48,male,boss,,,FemaleTop,BottomPower,boss,27,,,,,,,,,,,,,,,,,,,,4,,,,,,,,,,,,,secretary,1,1,1,42,,,,27,,0,0,{DOWNARROW},1207,400154,boss:secretary,,,,,,,,,,MainProcedure,,0,MainExperimentBlock1,female,secretary
professions_englishA,2,1,"<?xml version=""1.0""?>\n<Clock xmlns:dt=""urn:schemas-microsoft-com:datatypes""><Description dt:dt=""string"">E-Prime Primary Realtime Clock</Description><StartTime><Timestamp dt:dt=""int"">0</Timestamp><DateUtc dt:dt=""string"">2017-02-01T11:51:26Z</DateUtc></StartTime><FrequencyChanges><FrequencyChange><Frequency dt:dt=""r8"">2338408</Frequency><Timestamp dt:dt=""r8"">183027155724</Timestamp><Current dt:dt=""r8"">0</Current><DateUtc dt:dt=""string"">2017-02-01T11:51:26Z</DateUtc></FrequencyChange></FrequencyChanges></Clock>\n",professions_englishA-002-1,60.061,1.0.0.107,female,1,right,Britain,English,-1655980684,Standard,2.0.10.353,2.0.10.353,02/01/2017,01/02/2017 11:51,11:51:26,2.0.10.248,49,male,referee,,,FemaleTop,BottomPower,referee,12,,,,4,,,,,,,,,,,,,,,,,,,,,,,,,,,,,footballer,1,1,1,43,,,,12,,0,0,{UPARROW},2181,403609,referee:footballer,,,,,,,,,,MainProcedure,,0,MainExperimentBlock1,female,footballer
professions_englishA,2,1,"<?xml version=""1.0""?>\n<Clock xmlns:dt=""urn:schemas-microsoft-com:datatypes""><Description dt:dt=""string"">E-Prime Primary Realtime Clock</Description><StartTime><Timestamp dt:dt=""int"">0</Timestamp><DateUtc dt:dt=""string"">2017-02-01T11:51:26Z</DateUtc></StartTime><FrequencyChanges><FrequencyChange><Frequency dt:dt=""r8"">2338408</Frequency><Timestamp dt:dt=""r8"">183027155724</Timestamp><Current dt:dt=""r8"">0</Current><DateUtc dt:dt=""string"">2017-02-01T11:51:26Z</DateUtc></FrequencyChange></FrequencyChanges></Clock>\n",professions_englishA-002-1,60.061,1.0.0.107,female,1,right,Britain,English,-1655980684,Standard,2.0.10.353,2.0.10.353,02/01/2017,01/02/2017 11:51,11:51:26,2.0.10.248,50,male,pilot,,,FemaleTop,BottomPower,pilot,11,,,4,,,,,,,,,,,,,,,,,,,,,,,,,,,,,,flight attendant,1,1,1,44,,,,11,,0,0,{UPARROW},1979,406870,pilot:flight_attendant,,,,,,,,,,MainProcedure,,0,MainExperimentBlock1,female,flight attendant
professions_englishA,2,1,"<?xml version=""1.0""?>\n<Clock xmlns:dt=""urn:schemas-microsoft-com:datatypes""><Description dt:dt=""string"">E-Prime Primary Realtime Clock</Description><StartTime><Timestamp dt:dt=""int"">0</Timestamp><DateUtc dt:dt=""string"">2017-02-01T11:51:26Z</DateUtc></StartTime><FrequencyChanges><FrequencyChange><Frequency dt:dt=""r8"">2338408</Frequency><Timestamp dt:dt=""r8"">183027155724</Timestamp><Current dt:dt=""r8"">0</Current><DateUtc dt:dt=""string"">2017-02-01T11:51:26Z</DateUtc></FrequencyChange></FrequencyChanges></Clock>\n",professions_englishA-002-1,60.061,1.0.0.107,female,1,right,Britain,English,-1655980684,Standard,2.0.10.353,2.0.10.353,02/01/2017,01/02/2017 11:51,11:51:26,2.0.10.248,51,female,deputy,,,MaleTop,TopPower,general,22,,,,,,,,,,,,,,,1,,,,,,,,,,,,,,,,,,deputy,1,1,1,45,,,,22,,0,0,{DOWNARROW},1201,409355,general:deputy,,,,,,,,,,MainProcedure,,0,MainExperimentBlock1,male,general
professions_englishA,2,1,"<?xml version=""1.0""?>\n<Clock xmlns:dt=""urn:schemas-microsoft-com:datatypes""><Description dt:dt=""string"">E-Prime Primary Realtime Clock</Description><StartTime><Timestamp dt:dt=""int"">0</Timestamp><DateUtc dt:dt=""string"">2017-02-01T11:51:26Z</DateUtc></StartTime><FrequencyChanges><FrequencyChange><Frequency dt:dt=""r8"">2338408</Frequency><Timestamp dt:dt=""r8"">183027155724</Timestamp><Current dt:dt=""r8"">0</Current><DateUtc dt:dt=""string"">2017-02-01T11:51:26Z</DateUtc></FrequencyChange></FrequencyChanges></Clock>\n",professions_englishA-002-1,60.061,1.0.0.107,female,1,right,Britain,English,-1655980684,Standard,2.0.10.353,2.0.10.353,02/01/2017,01/02/2017 11:51,11:51:26,2.0.10.248,52,male,publisher,,,FemaleTop,BottomPower,publisher,26,,,,,,,,,,,,,,,,,,,4,,,,,,,,,,,,,,proofreader,1,1,1,46,,,,26,,0,0,{DOWNARROW},1339,411974,publisher:proofreader,,,,,,,,,,MainProcedure,,0,MainExperimentBlock1,female,proofreader
professions_englishA,2,1,"<?xml version=""1.0""?>\n<Clock xmlns:dt=""urn:schemas-microsoft-com:datatypes""><Description dt:dt=""string"">E-Prime Primary Realtime Clock</Description><StartTime><Timestamp dt:dt=""int"">0</Timestamp><DateUtc dt:dt=""string"">2017-02-01T11:51:26Z</DateUtc></StartTime><FrequencyChanges><FrequencyChange><Frequency dt:dt=""r8"">2338408</Frequency><Timestamp dt:dt=""r8"">183027155724</Timestamp><Current dt:dt=""r8"">0</Current><DateUtc dt:dt=""string"">2017-02-01T11:51:26Z</DateUtc></FrequencyChange></FrequencyChanges></Clock>\n",professions_englishA-002-1,60.061,1.0.0.107,female,1,right,Britain,English,-1655980684,Standard,2.0.10.353,2.0.10.353,02/01/2017,01/02/2017 11:51,11:51:26,2.0.10.248,53,female,sailor,,,MaleTop,TopPower,captain,3,,,,,,,,,,,,,,,,,,,,,,,1,,,,,,,,,,sailor,1,1,1,47,,,,3,,0,0,{UPARROW},1406,414655,captain:sailor,,,,,,,,,,MainProcedure,,0,MainExperimentBlock1,male,captain
professions_englishA,2,1,"<?xml version=""1.0""?>\n<Clock xmlns:dt=""urn:schemas-microsoft-com:datatypes""><Description dt:dt=""string"">E-Prime Primary Realtime Clock</Description><StartTime><Timestamp dt:dt=""int"">0</Timestamp><DateUtc dt:dt=""string"">2017-02-01T11:51:26Z</DateUtc></StartTime><FrequencyChanges><FrequencyChange><Frequency dt:dt=""r8"">2338408</Frequency><Timestamp dt:dt=""r8"">183027155724</Timestamp><Current dt:dt=""r8"">0</Current><DateUtc dt:dt=""string"">2017-02-01T11:51:26Z</DateUtc></FrequencyChange></FrequencyChanges></Clock>\n",professions_englishA-002-1,60.061,1.0.0.107,female,1,right,Britain,English,-1655980684,Standard,2.0.10.353,2.0.10.353,02/01/2017,01/02/2017 11:51,11:51:26,2.0.10.248,54,male,coach,,,FemaleTop,BottomPower,coach,2,,,,,,,,,,,,4,,,,,,,,,,,,,,,,,,,,,athlete,1,1,1,48,,,,2,,0,0,{DOWNARROW},3330,419260,coach:athlete,,,,,,,,,,MainProcedure,,0,MainExperimentBlock1,female,athlete
professions_englishA,2,1,"<?xml version=""1.0""?>\n<Clock xmlns:dt=""urn:schemas-microsoft-com:datatypes""><Description dt:dt=""string"">E-Prime Primary Realtime Clock</Description><StartTime><Timestamp dt:dt=""int"">0</Timestamp><DateUtc dt:dt=""string"">2017-02-01T11:51:26Z</DateUtc></StartTime><FrequencyChanges><FrequencyChange><Frequency dt:dt=""r8"">2338408</Frequency><Timestamp dt:dt=""r8"">183027155724</Timestamp><Current dt:dt=""r8"">0</Current><DateUtc dt:dt=""string"">2017-02-01T11:51:26Z</DateUtc></FrequencyChange></FrequencyChanges></Clock>\n",professions_englishA-002-1,60.061,1.0.0.107,female,1,right,Britain,English,-1655980684,Standard,2.0.10.353,2.0.10.353,02/01/2017,01/02/2017 11:51,11:51:26,2.0.10.248,55,male,architect,,,FemaleTop,BottomPower,architect,21,,,,,,,,,,,,,,4,,,,,,,,,,,,,,,,,,,builder,1,1,1,49,,,,21,,0,0,{DOWNARROW},881,421423,architector:builder,,,,,,,,,,MainProcedure,,0,MainExperimentBlock1,female,builder
professions_englishA,2,1,"<?xml version=""1.0""?>\n<Clock xmlns:dt=""urn:schemas-microsoft-com:datatypes""><Description dt:dt=""string"">E-Prime Primary Realtime Clock</Description><StartTime><Timestamp dt:dt=""int"">0</Timestamp><DateUtc dt:dt=""string"">2017-02-01T11:51:26Z</DateUtc></StartTime><FrequencyChanges><FrequencyChange><Frequency dt:dt=""r8"">2338408</Frequency><Timestamp dt:dt=""r8"">183027155724</Timestamp><Current dt:dt=""r8"">0</Current><DateUtc dt:dt=""string"">2017-02-01T11:51:26Z</DateUtc></FrequencyChange></FrequencyChanges></Clock>\n",professions_englishA-002-1,60.061,1.0.0.107,female,1,right,Britain,English,-1655980684,Standard,2.0.10.353,2.0.10.353,02/01/2017,01/02/2017 11:51,11:51:26,2.0.10.248,56,male,general,,,FemaleTop,BottomPower,general,22,,,,,,,,,,,,,,,4,,,,,,,,,,,,,,,,,,deputy,1,1,1,50,,,,22,,0,0,{UPARROW},1553,424259,general:deputy,,,,,,,,,,MainProcedure,,0,MainExperimentBlock1,female,deputy
professions_englishA,2,1,"<?xml version=""1.0""?>\n<Clock xmlns:dt=""urn:schemas-microsoft-com:datatypes""><Description dt:dt=""string"">E-Prime Primary Realtime Clock</Description><StartTime><Timestamp dt:dt=""int"">0</Timestamp><DateUtc dt:dt=""string"">2017-02-01T11:51:26Z</DateUtc></StartTime><FrequencyChanges><FrequencyChange><Frequency dt:dt=""r8"">2338408</Frequency><Timestamp dt:dt=""r8"">183027155724</Timestamp><Current dt:dt=""r8"">0</Current><DateUtc dt:dt=""string"">2017-02-01T11:51:26Z</DateUtc></FrequencyChange></FrequencyChanges></Clock>\n",professions_englishA-002-1,60.061,1.0.0.107,female,1,right,Britain,English,-1655980684,Standard,2.0.10.353,2.0.10.353,02/01/2017,01/02/2017 11:51,11:51:26,2.0.10.248,57,female,conductor,,,MaleTop,BottomPower,conductor,7,,,,,,,,,,,,,,,,,,,,,,,,,,,,,,3,,,musician,1,1,1,51,,,,7,,0,0,{DOWNARROW},1083,426620,conductor:musician,,,,,,,,,,MainProcedure,,0,MainExperimentBlock1,male,musician
professions_englishA,2,1,"<?xml version=""1.0""?>\n<Clock xmlns:dt=""urn:schemas-microsoft-com:datatypes""><Description dt:dt=""string"">E-Prime Primary Realtime Clock</Description><StartTime><Timestamp dt:dt=""int"">0</Timestamp><DateUtc dt:dt=""string"">2017-02-01T11:51:26Z</DateUtc></StartTime><FrequencyChanges><FrequencyChange><Frequency dt:dt=""r8"">2338408</Frequency><Timestamp dt:dt=""r8"">183027155724</Timestamp><Current dt:dt=""r8"">0</Current><DateUtc dt:dt=""string"">2017-02-01T11:51:26Z</DateUtc></FrequencyChange></FrequencyChanges></Clock>\n",professions_englishA-002-1,60.061,1.0.0.107,female,1,right,Britain,English,-1655980684,Standard,2.0.10.353,2.0.10.353,02/01/2017,01/02/2017 11:51,11:51:26,2.0.10.248,58,female,bank manager,,,MaleTop,BottomPower,bank manager,29,,,,,,,,,,,,,,,,,,,,,,3,,,,,,,,,,,bank clerk,1,1,1,52,,,,29,,0,0,{DOWNARROW},1351,429252,bank_manger:clerk,,,,,,,,,,MainProcedure,,0,MainExperimentBlock1,male,bank clerk
professions_englishA,2,1,"<?xml version=""1.0""?>\n<Clock xmlns:dt=""urn:schemas-microsoft-com:datatypes""><Description dt:dt=""string"">E-Prime Primary Realtime Clock</Description><StartTime><Timestamp dt:dt=""int"">0</Timestamp><DateUtc dt:dt=""string"">2017-02-01T11:51:26Z</DateUtc></StartTime><FrequencyChanges><FrequencyChange><Frequency dt:dt=""r8"">2338408</Frequency><Timestamp dt:dt=""r8"">183027155724</Timestamp><Current dt:dt=""r8"">0</Current><DateUtc dt:dt=""string"">2017-02-01T11:51:26Z</DateUtc></FrequencyChange></FrequencyChanges></Clock>\n",professions_englishA-002-1,60.061,1.0.0.107,female,1,right,Britain,English,-1655980684,Standard,2.0.10.353,2.0.10.353,02/01/2017,01/02/2017 11:51,11:51:26,2.0.10.248,59,male,professor,,,FemaleTop,BottomPower,professor,16,,,,,,,,4,,,,,,,,,,,,,,,,,,,,,,,,,student,1,1,1,53,,,,16,,0,0,{UPARROW},1076,431608,professor:student,,,,,,,,,,MainProcedure,,0,MainExperimentBlock1,female,student
professions_englishA,2,1,"<?xml version=""1.0""?>\n<Clock xmlns:dt=""urn:schemas-microsoft-com:datatypes""><Description dt:dt=""string"">E-Prime Primary Realtime Clock</Description><StartTime><Timestamp dt:dt=""int"">0</Timestamp><DateUtc dt:dt=""string"">2017-02-01T11:51:26Z</DateUtc></StartTime><FrequencyChanges><FrequencyChange><Frequency dt:dt=""r8"">2338408</Frequency><Timestamp dt:dt=""r8"">183027155724</Timestamp><Current dt:dt=""r8"">0</Current><DateUtc dt:dt=""string"">2017-02-01T11:51:26Z</DateUtc></FrequencyChange></FrequencyChanges></Clock>\n",professions_englishA-002-1,60.061,1.0.0.107,female,1,right,Britain,English,-1655980684,Standard,2.0.10.353,2.0.10.353,02/01/2017,01/02/2017 11:51,11:51:26,2.0.10.248,60,female,officer,,,MaleTop,BottomPower,officer,24,,,,,,,,,,,,,,,,,3,,,,,,,,,,,,,,,,cadet,1,1,1,54,,,,24,,0,0,{DOWNARROW},1071,433967,officer:cadet,,,,,,,,,,MainProcedure,,0,MainExperimentBlock1,male,cadet
professions_englishA,2,1,"<?xml version=""1.0""?>\n<Clock xmlns:dt=""urn:schemas-microsoft-com:datatypes""><Description dt:dt=""string"">E-Prime Primary Realtime Clock</Description><StartTime><Timestamp dt:dt=""int"">0</Timestamp><DateUtc dt:dt=""string"">2017-02-01T11:51:26Z</DateUtc></StartTime><FrequencyChanges><FrequencyChange><Frequency dt:dt=""r8"">2338408</Frequency><Timestamp dt:dt=""r8"">183027155724</Timestamp><Current dt:dt=""r8"">0</Current><DateUtc dt:dt=""string"">2017-02-01T11:51:26Z</DateUtc></FrequencyChange></FrequencyChanges></Clock>\n",professions_englishA-002-1,60.061,1.0.0.107,female,1,right,Britain,English,-1655980684,Standard,2.0.10.353,2.0.10.353,02/01/2017,01/02/2017 11:51,11:51:26,2.0.10.248,61,female,bank clerk,,,MaleTop,TopPower,bank manager,29,,,,,,,,,,,,,,,,,,,,,,1,,,,,,,,,,,bank clerk,1,1,1,55,,,,29,,0,0,{UPARROW},2343,437587,bank_manger:clerk,,,,,,,,,,MainProcedure,,0,MainExperimentBlock1,male,bank manager
professions_englishA,2,1,"<?xml version=""1.0""?>\n<Clock xmlns:dt=""urn:schemas-microsoft-com:datatypes""><Description dt:dt=""string"">E-Prime Primary Realtime Clock</Description><StartTime><Timestamp dt:dt=""int"">0</Timestamp><DateUtc dt:dt=""string"">2017-02-01T11:51:26Z</DateUtc></StartTime><FrequencyChanges><FrequencyChange><Frequency dt:dt=""r8"">2338408</Frequency><Timestamp dt:dt=""r8"">183027155724</Timestamp><Current dt:dt=""r8"">0</Current><DateUtc dt:dt=""string"">2017-02-01T11:51:26Z</DateUtc></FrequencyChange></FrequencyChanges></Clock>\n",professions_englishA-002-1,60.061,1.0.0.107,female,1,right,Britain,English,-1655980684,Standard,2.0.10.353,2.0.10.353,02/01/2017,01/02/2017 11:51,11:51:26,2.0.10.248,62,female,pot washer,,,MaleTop,TopPower,chef,4,,,,,,,,,,,,,,,,,,,,,,,,,,,1,,,,,,cook,1,1,1,56,,,,4,,0,0,{UPARROW},1134,440007,chef:cook,,,,,,,,,,MainProcedure,,0,MainExperimentBlock1,male,chef
professions_englishA,2,1,"<?xml version=""1.0""?>\n<Clock xmlns:dt=""urn:schemas-microsoft-com:datatypes""><Description dt:dt=""string"">E-Prime Primary Realtime Clock</Description><StartTime><Timestamp dt:dt=""int"">0</Timestamp><DateUtc dt:dt=""string"">2017-02-01T11:51:26Z</DateUtc></StartTime><FrequencyChanges><FrequencyChange><Frequency dt:dt=""r8"">2338408</Frequency><Timestamp dt:dt=""r8"">183027155724</Timestamp><Current dt:dt=""r8"">0</Current><DateUtc dt:dt=""string"">2017-02-01T11:51:26Z</DateUtc></FrequencyChange></FrequencyChanges></Clock>\n",professions_englishA-002-1,60.061,1.0.0.107,female,1,right,Britain,English,-1655980684,Standard,2.0.10.353,2.0.10.353,02/01/2017,01/02/2017 11:51,11:51:26,2.0.10.248,63,male,teacher,,,FemaleTop,BottomPower,teacher,17,,,,,,,,,4,,,,,,,,,,,,,,,,,,,,,,,,pupil,3,1,1,57,,,,17,{UPARROW},1237,444406,{UPARROW},1361,442649,teacher:pupil,,,,,,,,,,MainProcedure,Was the female at the top or bottom?,15000,MainExperimentBlock1,female,pupil
professions_englishA,2,1,"<?xml version=""1.0""?>\n<Clock xmlns:dt=""urn:schemas-microsoft-com:datatypes""><Description dt:dt=""string"">E-Prime Primary Realtime Clock</Description><StartTime><Timestamp dt:dt=""int"">0</Timestamp><DateUtc dt:dt=""string"">2017-02-01T11:51:26Z</DateUtc></StartTime><FrequencyChanges><FrequencyChange><Frequency dt:dt=""r8"">2338408</Frequency><Timestamp dt:dt=""r8"">183027155724</Timestamp><Current dt:dt=""r8"">0</Current><DateUtc dt:dt=""string"">2017-02-01T11:51:26Z</DateUtc></FrequencyChange></FrequencyChanges></Clock>\n",professions_englishA-002-1,60.061,1.0.0.107,female,1,right,Britain,English,-1655980684,Standard,2.0.10.353,2.0.10.353,02/01/2017,01/02/2017 11:51,11:51:26,2.0.10.248,64,female,footballer,,,MaleTop,TopPower,referee,12,,,,1,,,,,,,,,,,,,,,,,,,,,,,,,,,,,footballer,1,1,1,58,,,,12,,0,0,{UPARROW},1357,446524,referee:footballer,,,,,,,,,,MainProcedure,,0,MainExperimentBlock1,male,referee
professions_englishA,2,1,"<?xml version=""1.0""?>\n<Clock xmlns:dt=""urn:schemas-microsoft-com:datatypes""><Description dt:dt=""string"">E-Prime Primary Realtime Clock</Description><StartTime><Timestamp dt:dt=""int"">0</Timestamp><DateUtc dt:dt=""string"">2017-02-01T11:51:26Z</DateUtc></StartTime><FrequencyChanges><FrequencyChange><Frequency dt:dt=""r8"">2338408</Frequency><Timestamp dt:dt=""r8"">183027155724</Timestamp><Current dt:dt=""r8"">0</Current><DateUtc dt:dt=""string"">2017-02-01T11:51:26Z</DateUtc></FrequencyChange></FrequencyChanges></Clock>\n",professions_englishA-002-1,60.061,1.0.0.107,female,1,right,Britain,English,-1655980684,Standard,2.0.10.353,2.0.10.353,02/01/2017,01/02/2017 11:51,11:51:26,2.0.10.248,65,male,cadet,,,FemaleTop,TopPower,officer,24,,,,,,,,,,,,,,,,,2,,,,,,,,,,,,,,,,cadet,1,1,1,59,,,,24,,0,0,{UPARROW},1580,449378,officer:cadet,,,,,,,,,,MainProcedure,,0,MainExperimentBlock1,female,officer
professions_englishA,2,1,"<?xml version=""1.0""?>\n<Clock xmlns:dt=""urn:schemas-microsoft-com:datatypes""><Description dt:dt=""string"">E-Prime Primary Realtime Clock</Description><StartTime><Timestamp dt:dt=""int"">0</Timestamp><DateUtc dt:dt=""string"">2017-02-01T11:51:26Z</DateUtc></StartTime><FrequencyChanges><FrequencyChange><Frequency dt:dt=""r8"">2338408</Frequency><Timestamp dt:dt=""r8"">183027155724</Timestamp><Current dt:dt=""r8"">0</Current><DateUtc dt:dt=""string"">2017-02-01T11:51:26Z</DateUtc></FrequencyChange></FrequencyChanges></Clock>\n",professions_englishA-002-1,60.061,1.0.0.107,female,1,right,Britain,English,-1655980684,Standard,2.0.10.353,2.0.10.353,02/01/2017,01/02/2017 11:51,11:51:26,2.0.10.248,66,female,actor,,,MaleTop,TopPower,director,1,1,,,,,,,,,,,,,,,,,,,,,,,,,,,,,,,,actor,1,1,1,60,,,,1,,0,0,{UPARROW},1055,451716,director:actor,,,,,,,,,,MainProcedure,,0,MainExperimentBlock1,male,director
professions_englishA,2,1,"<?xml version=""1.0""?>\n<Clock xmlns:dt=""urn:schemas-microsoft-com:datatypes""><Description dt:dt=""string"">E-Prime Primary Realtime Clock</Description><StartTime><Timestamp dt:dt=""int"">0</Timestamp><DateUtc dt:dt=""string"">2017-02-01T11:51:26Z</DateUtc></StartTime><FrequencyChanges><FrequencyChange><Frequency dt:dt=""r8"">2338408</Frequency><Timestamp dt:dt=""r8"">183027155724</Timestamp><Current dt:dt=""r8"">0</Current><DateUtc dt:dt=""string"">2017-02-01T11:51:26Z</DateUtc></FrequencyChange></FrequencyChanges></Clock>\n",professions_englishA-002-1,60.061,1.0.0.107,female,1,right,Britain,English,-1655980684,Standard,2.0.10.353,2.0.10.353,02/01/2017,01/02/2017 11:51,11:51:26,2.0.10.248,67,male,captain,,,FemaleTop,BottomPower,captain,3,,,,,,,,,,,,,,,,,,,,,,,4,,,,,,,,,,sailor,1,1,1,61,,,,3,,0,0,{DOWNARROW},1255,454247,captain:sailor,,,,,,,,,,MainProcedure,,0,MainExperimentBlock1,female,sailor
professions_englishA,2,1,"<?xml version=""1.0""?>\n<Clock xmlns:dt=""urn:schemas-microsoft-com:datatypes""><Description dt:dt=""string"">E-Prime Primary Realtime Clock</Description><StartTime><Timestamp dt:dt=""int"">0</Timestamp><DateUtc dt:dt=""string"">2017-02-01T11:51:26Z</DateUtc></StartTime><FrequencyChanges><FrequencyChange><Frequency dt:dt=""r8"">2338408</Frequency><Timestamp dt:dt=""r8"">183027155724</Timestamp><Current dt:dt=""r8"">0</Current><DateUtc dt:dt=""string"">2017-02-01T11:51:26Z</DateUtc></FrequencyChange></FrequencyChanges></Clock>\n",professions_englishA-002-1,60.061,1.0.0.107,female,1,right,Britain,English,-1655980684,Standard,2.0.10.353,2.0.10.353,02/01/2017,01/02/2017 11:51,11:51:26,2.0.10.248,68,male,colonel,,,FemaleTop,BottomPower,colonel,14,,,,,,4,,,,,,,,,,,,,,,,,,,,,,,,,,,soldier,1,1,1,62,,,,14,,0,0,{DOWNARROW},1358,456881,colonel:soldier,,,,,,,,,,MainProcedure,,0,MainExperimentBlock1,female,soldier
professions_englishA,2,1,"<?xml version=""1.0""?>\n<Clock xmlns:dt=""urn:schemas-microsoft-com:datatypes""><Description dt:dt=""string"">E-Prime Primary Realtime Clock</Description><StartTime><Timestamp dt:dt=""int"">0</Timestamp><DateUtc dt:dt=""string"">2017-02-01T11:51:26Z</DateUtc></StartTime><FrequencyChanges><FrequencyChange><Frequency dt:dt=""r8"">2338408</Frequency><Timestamp dt:dt=""r8"">183027155724</Timestamp><Current dt:dt=""r8"">0</Current><DateUtc dt:dt=""string"">2017-02-01T11:51:26Z</DateUtc></FrequencyChange></FrequencyChanges></Clock>\n",professions_englishA-002-1,60.061,1.0.0.107,female,1,right,Britain,English,-1655980684,Standard,2.0.10.353,2.0.10.353,02/01/2017,01/02/2017 11:51,11:51:26,2.0.10.248,69,male,secretary,,,FemaleTop,TopPower,boss,27,,,,,,,,,,,,,,,,,,,,2,,,,,,,,,,,,,secretary,3,1,1,63,,,,27,{UPARROW},850,460469,{UPARROW},948,459102,boss:secretary,,,,,,,,,,MainProcedure,Was the female at the top or bottom?,15000,MainExperimentBlock1,female,boss
professions_englishA,2,1,"<?xml version=""1.0""?>\n<Clock xmlns:dt=""urn:schemas-microsoft-com:datatypes""><Description dt:dt=""string"">E-Prime Primary Realtime Clock</Description><StartTime><Timestamp dt:dt=""int"">0</Timestamp><DateUtc dt:dt=""string"">2017-02-01T11:51:26Z</DateUtc></StartTime><FrequencyChanges><FrequencyChange><Frequency dt:dt=""r8"">2338408</Frequency><Timestamp dt:dt=""r8"">183027155724</Timestamp><Current dt:dt=""r8"">0</Current><DateUtc dt:dt=""string"">2017-02-01T11:51:26Z</DateUtc></FrequencyChange></FrequencyChanges></Clock>\n",professions_englishA-002-1,60.061,1.0.0.107,female,1,right,Britain,English,-1655980684,Standard,2.0.10.353,2.0.10.353,02/01/2017,01/02/2017 11:51,11:51:26,2.0.10.248,70,male,senior stylist,,,FemaleTop,BottomPower,senior stylist,31,,,,,,,,,,,,,,,,,,,,,,,,,4,,,,,,,,junior stylist,1,1,1,64,,,,31,,0,0,{DOWNARROW},1438,462672,senior_stylist:stylist,,,,,,,,,,MainProcedure,,0,MainExperimentBlock1,female,junior stylist
professions_englishA,2,1,"<?xml version=""1.0""?>\n<Clock xmlns:dt=""urn:schemas-microsoft-com:datatypes""><Description dt:dt=""string"">E-Prime Primary Realtime Clock</Description><StartTime><Timestamp dt:dt=""int"">0</Timestamp><DateUtc dt:dt=""string"">2017-02-01T11:51:26Z</DateUtc></StartTime><FrequencyChanges><FrequencyChange><Frequency dt:dt=""r8"">2338408</Frequency><Timestamp dt:dt=""r8"">183027155724</Timestamp><Current dt:dt=""r8"">0</Current><DateUtc dt:dt=""string"">2017-02-01T11:51:26Z</DateUtc></FrequencyChange></FrequencyChanges></Clock>\n",professions_englishA-002-1,60.061,1.0.0.107,female,1,right,Britain,English,-1655980684,Standard,2.0.10.353,2.0.10.353,02/01/2017,01/02/2017 11:51,11:51:26,2.0.10.248,71,female,referee,,,MaleTop,BottomPower,referee,12,,,,3,,,,,,,,,,,,,,,,,,,,,,,,,,,,,footballer,2,,,,1,1,1,12,{UPARROW},1288,487031,{DOWNARROW},1155,485233,referee:footballer,,,,,,,,,,MainProcedure,Was the male at the top or bottom?,15000,MainExperimentBlock2,male,footballer
professions_englishA,2,1,"<?xml version=""1.0""?>\n<Clock xmlns:dt=""urn:schemas-microsoft-com:datatypes""><Description dt:dt=""string"">E-Prime Primary Realtime Clock</Description><StartTime><Timestamp dt:dt=""int"">0</Timestamp><DateUtc dt:dt=""string"">2017-02-01T11:51:26Z</DateUtc></StartTime><FrequencyChanges><FrequencyChange><Frequency dt:dt=""r8"">2338408</Frequency><Timestamp dt:dt=""r8"">183027155724</Timestamp><Current dt:dt=""r8"">0</Current><DateUtc dt:dt=""string"">2017-02-01T11:51:26Z</DateUtc></FrequencyChange></FrequencyChanges></Clock>\n",professions_englishA-002-1,60.061,1.0.0.107,female,1,right,Britain,English,-1655980684,Standard,2.0.10.353,2.0.10.353,02/01/2017,01/02/2017 11:51,11:51:26,2.0.10.248,72,male,conductor,,,FemaleTop,BottomPower,conductor,7,,,,,,,,,,,,,,,,,,,,,,,,,,,,,,4,,,musician,2,,,,1,1,2,7,{DOWNARROW},817,490373,{DOWNARROW},1252,489043,conductor:musician,,,,,,,,,,MainProcedure,Was the male at the top or bottom?,15000,MainExperimentBlock2,female,musician
professions_englishA,2,1,"<?xml version=""1.0""?>\n<Clock xmlns:dt=""urn:schemas-microsoft-com:datatypes""><Description dt:dt=""string"">E-Prime Primary Realtime Clock</Description><StartTime><Timestamp dt:dt=""int"">0</Timestamp><DateUtc dt:dt=""string"">2017-02-01T11:51:26Z</DateUtc></StartTime><FrequencyChanges><FrequencyChange><Frequency dt:dt=""r8"">2338408</Frequency><Timestamp dt:dt=""r8"">183027155724</Timestamp><Current dt:dt=""r8"">0</Current><DateUtc dt:dt=""string"">2017-02-01T11:51:26Z</DateUtc></FrequencyChange></FrequencyChanges></Clock>\n",professions_englishA-002-1,60.061,1.0.0.107,female,1,right,Britain,English,-1655980684,Standard,2.0.10.353,2.0.10.353,02/01/2017,01/02/2017 11:51,11:51:26,2.0.10.248,73,male,vet,,,FemaleTop,BottomPower,vet,19,,,,,,,,,,,4,,,,,,,,,,,,,,,,,,,,,,veterinary assistant,1,,,,1,1,3,19,,0,0,{DOWNARROW},1355,492492,vet:assistant,,,,,,,,,,MainProcedure,,0,MainExperimentBlock2,female,veterinary assistant
professions_englishA,2,1,"<?xml version=""1.0""?>\n<Clock xmlns:dt=""urn:schemas-microsoft-com:datatypes""><Description dt:dt=""string"">E-Prime Primary Realtime Clock</Description><StartTime><Timestamp dt:dt=""int"">0</Timestamp><DateUtc dt:dt=""string"">2017-02-01T11:51:26Z</DateUtc></StartTime><FrequencyChanges><FrequencyChange><Frequency dt:dt=""r8"">2338408</Frequency><Timestamp dt:dt=""r8"">183027155724</Timestamp><Current dt:dt=""r8"">0</Current><DateUtc dt:dt=""string"">2017-02-01T11:51:26Z</DateUtc></FrequencyChange></FrequencyChanges></Clock>\n",professions_englishA-002-1,60.061,1.0.0.107,female,1,right,Britain,English,-1655980684,Standard,2.0.10.353,2.0.10.353,02/01/2017,01/02/2017 11:51,11:51:26,2.0.10.248,74,male,monarch,,,FemaleTop,BottomPower,monarch,13,,,,,4,,,,,,,,,,,,,,,,,,,,,,,,,,,,servant,3,,,,1,1,4,13,{UPARROW},875,496308,{DOWNARROW},1147,494915,monarch:servant,,,,,,,,,,MainProcedure,Was the female at the top or bottom?,15000,MainExperimentBlock2,female,servant
professions_englishA,2,1,"<?xml version=""1.0""?>\n<Clock xmlns:dt=""urn:schemas-microsoft-com:datatypes""><Description dt:dt=""string"">E-Prime Primary Realtime Clock</Description><StartTime><Timestamp dt:dt=""int"">0</Timestamp><DateUtc dt:dt=""string"">2017-02-01T11:51:26Z</DateUtc></StartTime><FrequencyChanges><FrequencyChange><Frequency dt:dt=""r8"">2338408</Frequency><Timestamp dt:dt=""r8"">183027155724</Timestamp><Current dt:dt=""r8"">0</Current><DateUtc dt:dt=""string"">2017-02-01T11:51:26Z</DateUtc></FrequencyChange></FrequencyChanges></Clock>\n",professions_englishA-002-1,60.061,1.0.0.107,female,1,right,Britain,English,-1655980684,Standard,2.0.10.353,2.0.10.353,02/01/2017,01/02/2017 11:51,11:51:26,2.0.10.248,75,female,nurse,,,MaleTop,TopPower,doctor,9,,,,,,,,,,,,,,,,,,,,,,,,,,,,,,,,1,nurse,1,,,,1,1,5,9,,0,0,{UPARROW},1001,498066,doctor:nurse,,,,,,,,,,MainProcedure,,0,MainExperimentBlock2,male,doctor
professions_englishA,2,1,"<?xml version=""1.0""?>\n<Clock xmlns:dt=""urn:schemas-microsoft-com:datatypes""><Description dt:dt=""string"">E-Prime Primary Realtime Clock</Description><StartTime><Timestamp dt:dt=""int"">0</Timestamp><DateUtc dt:dt=""string"">2017-02-01T11:51:26Z</DateUtc></StartTime><FrequencyChanges><FrequencyChange><Frequency dt:dt=""r8"">2338408</Frequency><Timestamp dt:dt=""r8"">183027155724</Timestamp><Current dt:dt=""r8"">0</Current><DateUtc dt:dt=""string"">2017-02-01T11:51:26Z</DateUtc></FrequencyChange></FrequencyChanges></Clock>\n",professions_englishA-002-1,60.061,1.0.0.107,female,1,right,Britain,English,-1655980684,Standard,2.0.10.353,2.0.10.353,02/01/2017,01/02/2017 11:51,11:51:26,2.0.10.248,76,female,senior stylist,,,MaleTop,BottomPower,senior stylist,31,,,,,,,,,,,,,,,,,,,,,,,,,3,,,,,,,,junior stylist,1,,,,1,1,6,31,,0,0,{DOWNARROW},805,500151,senior_stylist:stylist,,,,,,,,,,MainProcedure,,0,MainExperimentBlock2,male,junior stylist
professions_englishA,2,1,"<?xml version=""1.0""?>\n<Clock xmlns:dt=""urn:schemas-microsoft-com:datatypes""><Description dt:dt=""string"">E-Prime Primary Realtime Clock</Description><StartTime><Timestamp dt:dt=""int"">0</Timestamp><DateUtc dt:dt=""string"">2017-02-01T11:51:26Z</DateUtc></StartTime><FrequencyChanges><FrequencyChange><Frequency dt:dt=""r8"">2338408</Frequency><Timestamp dt:dt=""r8"">183027155724</Timestamp><Current dt:dt=""r8"">0</Current><DateUtc dt:dt=""string"">2017-02-01T11:51:26Z</DateUtc></FrequencyChange></FrequencyChanges></Clock>\n",professions_englishA-002-1,60.061,1.0.0.107,female,1,right,Britain,English,-1655980684,Standard,2.0.10.353,2.0.10.353,02/01/2017,01/02/2017 11:51,11:51:26,2.0.10.248,77,male,employee,,,FemaleTop,TopPower,employer,10,,2,,,,,,,,,,,,,,,,,,,,,,,,,,,,,,,employee,1,,,,1,1,7,10,,0,0,{UPARROW},988,502415,employer:employee,,,,,,,,,,MainProcedure,,0,MainExperimentBlock2,female,employer
professions_englishA,2,1,"<?xml version=""1.0""?>\n<Clock xmlns:dt=""urn:schemas-microsoft-com:datatypes""><Description dt:dt=""string"">E-Prime Primary Realtime Clock</Description><StartTime><Timestamp dt:dt=""int"">0</Timestamp><DateUtc dt:dt=""string"">2017-02-01T11:51:26Z</DateUtc></StartTime><FrequencyChanges><FrequencyChange><Frequency dt:dt=""r8"">2338408</Frequency><Timestamp dt:dt=""r8"">183027155724</Timestamp><Current dt:dt=""r8"">0</Current><DateUtc dt:dt=""string"">2017-02-01T11:51:26Z</DateUtc></FrequencyChange></FrequencyChanges></Clock>\n",professions_englishA-002-1,60.061,1.0.0.107,female,1,right,Britain,English,-1655980684,Standard,2.0.10.353,2.0.10.353,02/01/2017,01/02/2017 11:51,11:51:26,2.0.10.248,78,female,mechanic,,,MaleTop,TopPower,engineer,25,,,,,,,,,,,,,,,,,,1,,,,,,,,,,,,,,,mechanic,1,,,,1,1,8,25,,0,0,{UPARROW},1012,504703,engineer:mechanic,,,,,,,,,,MainProcedure,,0,MainExperimentBlock2,male,engineer
professions_englishA,2,1,"<?xml version=""1.0""?>\n<Clock xmlns:dt=""urn:schemas-microsoft-com:datatypes""><Description dt:dt=""string"">E-Prime Primary Realtime Clock</Description><StartTime><Timestamp dt:dt=""int"">0</Timestamp><DateUtc dt:dt=""string"">2017-02-01T11:51:26Z</DateUtc></StartTime><FrequencyChanges><FrequencyChange><Frequency dt:dt=""r8"">2338408</Frequency><Timestamp dt:dt=""r8"">183027155724</Timestamp><Current dt:dt=""r8"">0</Current><DateUtc dt:dt=""string"">2017-02-01T11:51:26Z</DateUtc></FrequencyChange></FrequencyChanges></Clock>\n",professions_englishA-002-1,60.061,1.0.0.107,female,1,right,Britain,English,-1655980684,Standard,2.0.10.353,2.0.10.353,02/01/2017,01/02/2017 11:51,11:51:26,2.0.10.248,79,male,actor,,,FemaleTop,TopPower,director,1,2,,,,,,,,,,,,,,,,,,,,,,,,,,,,,,,,actor,3,,,,1,1,9,1,{UPARROW},683,508137,{UPARROW},947,506936,director:actor,,,,,,,,,,MainProcedure,Was the female at the top or bottom?,15000,MainExperimentBlock2,female,director
professions_englishA,2,1,"<?xml version=""1.0""?>\n<Clock xmlns:dt=""urn:schemas-microsoft-com:datatypes""><Description dt:dt=""string"">E-Prime Primary Realtime Clock</Description><StartTime><Timestamp dt:dt=""int"">0</Timestamp><DateUtc dt:dt=""string"">2017-02-01T11:51:26Z</DateUtc></StartTime><FrequencyChanges><FrequencyChange><Frequency dt:dt=""r8"">2338408</Frequency><Timestamp dt:dt=""r8"">183027155724</Timestamp><Current dt:dt=""r8"">0</Current><DateUtc dt:dt=""string"">2017-02-01T11:51:26Z</DateUtc></FrequencyChange></FrequencyChanges></Clock>\n",professions_englishA-002-1,60.061,1.0.0.107,female,1,right,Britain,English,-1655980684,Standard,2.0.10.353,2.0.10.353,02/01/2017,01/02/2017 11:51,11:51:26,2.0.10.248,80,female,soldier,,,MaleTop,TopPower,colonel,14,,,,,,1,,,,,,,,,,,,,,,,,,,,,,,,,,,soldier,2,,,,1,1,10,14,{DOWNARROW},1020,511471,{UPARROW},1031,509934,colonel:soldier,,,,,,,,,,MainProcedure,Was the male at the top or bottom?,15000,MainExperimentBlock2,male,colonel
professions_englishA,2,1,"<?xml version=""1.0""?>\n<Clock xmlns:dt=""urn:schemas-microsoft-com:datatypes""><Description dt:dt=""string"">E-Prime Primary Realtime Clock</Description><StartTime><Timestamp dt:dt=""int"">0</Timestamp><DateUtc dt:dt=""string"">2017-02-01T11:51:26Z</DateUtc></StartTime><FrequencyChanges><FrequencyChange><Frequency dt:dt=""r8"">2338408</Frequency><Timestamp dt:dt=""r8"">183027155724</Timestamp><Current dt:dt=""r8"">0</Current><DateUtc dt:dt=""string"">2017-02-01T11:51:26Z</DateUtc></FrequencyChange></FrequencyChanges></Clock>\n",professions_englishA-002-1,60.061,1.0.0.107,female,1,right,Britain,English,-1655980684,Standard,2.0.10.353,2.0.10.353,02/01/2017,01/02/2017 11:51,11:51:26,2.0.10.248,81,male,musician,,,FemaleTop,TopPower,conductor,7,,,,,,,,,,,,,,,,,,,,,,,,,,,,,,2,,,musician,1,,,,1,1,11,7,,0,0,{UPARROW},893,513126,conductor:musician,,,,,,,,,,MainProcedure,,0,MainExperimentBlock2,female,conductor
professions_englishA,2,1,"<?xml version=""1.0""?>\n<Clock xmlns:dt=""urn:schemas-microsoft-com:datatypes""><Description dt:dt=""string"">E-Prime Primary Realtime Clock</Description><StartTime><Timestamp dt:dt=""int"">0</Timestamp><DateUtc dt:dt=""string"">2017-02-01T11:51:26Z</DateUtc></StartTime><FrequencyChanges><FrequencyChange><Frequency dt:dt=""r8"">2338408</Frequency><Timestamp dt:dt=""r8"">183027155724</Timestamp><Current dt:dt=""r8"">0</Current><DateUtc dt:dt=""string"">2017-02-01T11:51:26Z</DateUtc></FrequencyChange></FrequencyChanges></Clock>\n",professions_englishA-002-1,60.061,1.0.0.107,female,1,right,Britain,English,-1655980684,Standard,2.0.10.353,2.0.10.353,02/01/2017,01/02/2017 11:51,11:51:26,2.0.10.248,82,female,engineer,,,MaleTop,BottomPower,engineer,25,,,,,,,,,,,,,,,,,,3,,,,,,,,,,,,,,,mechanic,1,,,,1,1,12,25,,0,0,{UPARROW},1134,515548,engineer:mechanic,,,,,,,,,,MainProcedure,,0,MainExperimentBlock2,male,mechanic
professions_englishA,2,1,"<?xml version=""1.0""?>\n<Clock xmlns:dt=""urn:schemas-microsoft-com:datatypes""><Description dt:dt=""string"">E-Prime Primary Realtime Clock</Description><StartTime><Timestamp dt:dt=""int"">0</Timestamp><DateUtc dt:dt=""string"">2017-02-01T11:51:26Z</DateUtc></StartTime><FrequencyChanges><FrequencyChange><Frequency dt:dt=""r8"">2338408</Frequency><Timestamp dt:dt=""r8"">183027155724</Timestamp><Current dt:dt=""r8"">0</Current><DateUtc dt:dt=""string"">2017-02-01T11:51:26Z</DateUtc></FrequencyChange></FrequencyChanges></Clock>\n",professions_englishA-002-1,60.061,1.0.0.107,female,1,right,Britain,English,-1655980684,Standard,2.0.10.353,2.0.10.353,02/01/2017,01/02/2017 11:51,11:51:26,2.0.10.248,83,female,veterinary assistant,,,MaleTop,TopPower,vet,19,,,,,,,,,,,1,,,,,,,,,,,,,,,,,,,,,,veterinary assistant,3,,,,1,1,13,19,{DOWNARROW},1069,519362,{UPARROW},951,517779,vet:assistant,,,,,,,,,,MainProcedure,Was the female at the top or bottom?,15000,MainExperimentBlock2,male,vet
professions_englishA,2,1,"<?xml version=""1.0""?>\n<Clock xmlns:dt=""urn:schemas-microsoft-com:datatypes""><Description dt:dt=""string"">E-Prime Primary Realtime Clock</Description><StartTime><Timestamp dt:dt=""int"">0</Timestamp><DateUtc dt:dt=""string"">2017-02-01T11:51:26Z</DateUtc></StartTime><FrequencyChanges><FrequencyChange><Frequency dt:dt=""r8"">2338408</Frequency><Timestamp dt:dt=""r8"">183027155724</Timestamp><Current dt:dt=""r8"">0</Current><DateUtc dt:dt=""string"">2017-02-01T11:51:26Z</DateUtc></FrequencyChange></FrequencyChanges></Clock>\n",professions_englishA-002-1,60.061,1.0.0.107,female,1,right,Britain,English,-1655980684,Standard,2.0.10.353,2.0.10.353,02/01/2017,01/02/2017 11:51,11:51:26,2.0.10.248,84,female,pupil,,,MaleTop,TopPower,teacher,17,,,,,,,,,1,,,,,,,,,,,,,,,,,,,,,,,,pupil,1,,,,1,1,14,17,,0,0,{UPARROW},1406,521531,teacher:pupil,,,,,,,,,,MainProcedure,,0,MainExperimentBlock2,male,teacher
professions_englishA,2,1,"<?xml version=""1.0""?>\n<Clock xmlns:dt=""urn:schemas-microsoft-com:datatypes""><Description dt:dt=""string"">E-Prime Primary Realtime Clock</Description><StartTime><Timestamp dt:dt=""int"">0</Timestamp><DateUtc dt:dt=""string"">2017-02-01T11:51:26Z</DateUtc></StartTime><FrequencyChanges><FrequencyChange><Frequency dt:dt=""r8"">2338408</Frequency><Timestamp dt:dt=""r8"">183027155724</Timestamp><Current dt:dt=""r8"">0</Current><DateUtc dt:dt=""string"">2017-02-01T11:51:26Z</DateUtc></FrequencyChange></FrequencyChanges></Clock>\n",professions_englishA-002-1,60.061,1.0.0.107,female,1,right,Britain,English,-1655980684,Standard,2.0.10.353,2.0.10.353,02/01/2017,01/02/2017 11:51,11:51:26,2.0.10.248,85,male,pot washer,,,FemaleTop,TopPower,chef,4,,,,,,,,,,,,,,,,,,,,,,,,,,,2,,,,,,cook,1,,,,1,1,15,4,,0,0,{UPARROW},923,523728,chef:cook,,,,,,,,,,MainProcedure,,0,MainExperimentBlock2,female,chef
professions_englishA,2,1,"<?xml version=""1.0""?>\n<Clock xmlns:dt=""urn:schemas-microsoft-com:datatypes""><Description dt:dt=""string"">E-Prime Primary Realtime Clock</Description><StartTime><Timestamp dt:dt=""int"">0</Timestamp><DateUtc dt:dt=""string"">2017-02-01T11:51:26Z</DateUtc></StartTime><FrequencyChanges><FrequencyChange><Frequency dt:dt=""r8"">2338408</Frequency><Timestamp dt:dt=""r8"">183027155724</Timestamp><Current dt:dt=""r8"">0</Current><DateUtc dt:dt=""string"">2017-02-01T11:51:26Z</DateUtc></FrequencyChange></FrequencyChanges></Clock>\n",professions_englishA-002-1,60.061,1.0.0.107,female,1,right,Britain,English,-1655980684,Standard,2.0.10.353,2.0.10.353,02/01/2017,01/02/2017 11:51,11:51:26,2.0.10.248,86,female,vet,,,MaleTop,BottomPower,vet,19,,,,,,,,,,,3,,,,,,,,,,,,,,,,,,,,,,veterinary assistant,1,,,,1,1,16,19,,0,0,{DOWNARROW},948,525951,vet:assistant,,,,,,,,,,MainProcedure,,0,MainExperimentBlock2,male,veterinary assistant
professions_englishA,2,1,"<?xml version=""1.0""?>\n<Clock xmlns:dt=""urn:schemas-microsoft-com:datatypes""><Description dt:dt=""string"">E-Prime Primary Realtime Clock</Description><StartTime><Timestamp dt:dt=""int"">0</Timestamp><DateUtc dt:dt=""string"">2017-02-01T11:51:26Z</DateUtc></StartTime><FrequencyChanges><FrequencyChange><Frequency dt:dt=""r8"">2338408</Frequency><Timestamp dt:dt=""r8"">183027155724</Timestamp><Current dt:dt=""r8"">0</Current><DateUtc dt:dt=""string"">2017-02-01T11:51:26Z</DateUtc></FrequencyChange></FrequencyChanges></Clock>\n",professions_englishA-002-1,60.061,1.0.0.107,female,1,right,Britain,English,-1655980684,Standard,2.0.10.353,2.0.10.353,02/01/2017,01/02/2017 11:51,11:51:26,2.0.10.248,87,male,patient,,,FemaleTop,TopPower,surgeon,15,,,,,,,2,,,,,,,,,,,,,,,,,,,,,,,,,,patient,3,,,,1,1,17,15,{UPARROW},914,529447,{UPARROW},792,528026,surgeon:patient,,,,,,,,,,MainProcedure,Was the female at the top or bottom?,15000,MainExperimentBlock2,female,surgeon
professions_englishA,2,1,"<?xml version=""1.0""?>\n<Clock xmlns:dt=""urn:schemas-microsoft-com:datatypes""><Description dt:dt=""string"">E-Prime Primary Realtime Clock</Description><StartTime><Timestamp dt:dt=""int"">0</Timestamp><DateUtc dt:dt=""string"">2017-02-01T11:51:26Z</DateUtc></StartTime><FrequencyChanges><FrequencyChange><Frequency dt:dt=""r8"">2338408</Frequency><Timestamp dt:dt=""r8"">183027155724</Timestamp><Current dt:dt=""r8"">0</Current><DateUtc dt:dt=""string"">2017-02-01T11:51:26Z</DateUtc></FrequencyChange></FrequencyChanges></Clock>\n",professions_englishA-002-1,60.061,1.0.0.107,female,1,right,Britain,English,-1655980684,Standard,2.0.10.353,2.0.10.353,02/01/2017,01/02/2017 11:51,11:51:26,2.0.10.248,88,female,dancer,,,MaleTop,TopPower,dance instructor,20,,,,,,,,,,,,,1,,,,,,,,,,,,,,,,,,,,dancer,2,,,,1,1,18,20,{UPARROW},1168,532981,{UPARROW},1089,531304,dance_instructor:dancer,,,,,,,,,,MainProcedure,Was the male at the top or bottom?,15000,MainExperimentBlock2,male,dance instructor
professions_englishA,2,1,"<?xml version=""1.0""?>\n<Clock xmlns:dt=""urn:schemas-microsoft-com:datatypes""><Description dt:dt=""string"">E-Prime Primary Realtime Clock</Description><StartTime><Timestamp dt:dt=""int"">0</Timestamp><DateUtc dt:dt=""string"">2017-02-01T11:51:26Z</DateUtc></StartTime><FrequencyChanges><FrequencyChange><Frequency dt:dt=""r8"">2338408</Frequency><Timestamp dt:dt=""r8"">183027155724</Timestamp><Current dt:dt=""r8"">0</Current><DateUtc dt:dt=""string"">2017-02-01T11:51:26Z</DateUtc></FrequencyChange></FrequencyChanges></Clock>\n",professions_englishA-002-1,60.061,1.0.0.107,female,1,right,Britain,English,-1655980684,Standard,2.0.10.353,2.0.10.353,02/01/2017,01/02/2017 11:51,11:51:26,2.0.10.248,89,male,servant,,,FemaleTop,TopPower,monarch,13,,,,,2,,,,,,,,,,,,,,,,,,,,,,,,,,,,servant,1,,,,1,1,19,13,,0,0,{UPARROW},950,534694,monarch:servant,,,,,,,,,,MainProcedure,,0,MainExperimentBlock2,female,monarch
professions_englishA,2,1,"<?xml version=""1.0""?>\n<Clock xmlns:dt=""urn:schemas-microsoft-com:datatypes""><Description dt:dt=""string"">E-Prime Primary Realtime Clock</Description><StartTime><Timestamp dt:dt=""int"">0</Timestamp><DateUtc dt:dt=""string"">2017-02-01T11:51:26Z</DateUtc></StartTime><FrequencyChanges><FrequencyChange><Frequency dt:dt=""r8"">2338408</Frequency><Timestamp dt:dt=""r8"">183027155724</Timestamp><Current dt:dt=""r8"">0</Current><DateUtc dt:dt=""string"">2017-02-01T11:51:26Z</DateUtc></FrequencyChange></FrequencyChanges></Clock>\n",professions_englishA-002-1,60.061,1.0.0.107,female,1,right,Britain,English,-1655980684,Standard,2.0.10.353,2.0.10.353,02/01/2017,01/02/2017 11:51,11:51:26,2.0.10.248,90,female,dentist,,,MaleTop,BottomPower,dentist,8,,,,,,,,,,,,,,,,,,,,,,,,,,,,,,,3,,assistant,1,,,,1,1,20,8,,0,0,{DOWNARROW},942,536917,dentist:assistant,,,,,,,,,,MainProcedure,,0,MainExperimentBlock2,male,assistant
professions_englishA,2,1,"<?xml version=""1.0""?>\n<Clock xmlns:dt=""urn:schemas-microsoft-com:datatypes""><Description dt:dt=""string"">E-Prime Primary Realtime Clock</Description><StartTime><Timestamp dt:dt=""int"">0</Timestamp><DateUtc dt:dt=""string"">2017-02-01T11:51:26Z</DateUtc></StartTime><FrequencyChanges><FrequencyChange><Frequency dt:dt=""r8"">2338408</Frequency><Timestamp dt:dt=""r8"">183027155724</Timestamp><Current dt:dt=""r8"">0</Current><DateUtc dt:dt=""string"">2017-02-01T11:51:26Z</DateUtc></FrequencyChange></FrequencyChanges></Clock>\n",professions_englishA-002-1,60.061,1.0.0.107,female,1,right,Britain,English,-1655980684,Standard,2.0.10.353,2.0.10.353,02/01/2017,01/02/2017 11:51,11:51:26,2.0.10.248,91,male,landowner,,,FemaleTop,BottomPower,landowner,32,,,,,,,,,,,,,,,,,,,,,,,,,,4,,,,,,,labourer,1,,,,1,1,21,32,,0,0,{DOWNARROW},2021,540211,landowner:labourer,,,,,,,,,,MainProcedure,,0,MainExperimentBlock2,female,labourer
professions_englishA,2,1,"<?xml version=""1.0""?>\n<Clock xmlns:dt=""urn:schemas-microsoft-com:datatypes""><Description dt:dt=""string"">E-Prime Primary Realtime Clock</Description><StartTime><Timestamp dt:dt=""int"">0</Timestamp><DateUtc dt:dt=""string"">2017-02-01T11:51:26Z</DateUtc></StartTime><FrequencyChanges><FrequencyChange><Frequency dt:dt=""r8"">2338408</Frequency><Timestamp dt:dt=""r8"">183027155724</Timestamp><Current dt:dt=""r8"">0</Current><DateUtc dt:dt=""string"">2017-02-01T11:51:26Z</DateUtc></FrequencyChange></FrequencyChanges></Clock>\n",professions_englishA-002-1,60.061,1.0.0.107,female,1,right,Britain,English,-1655980684,Standard,2.0.10.353,2.0.10.353,02/01/2017,01/02/2017 11:51,11:51:26,2.0.10.248,92,female,builder,,,MaleTop,TopPower,architect,21,,,,,,,,,,,,,,1,,,,,,,,,,,,,,,,,,,builder,2,,,,1,1,22,21,{UPARROW},1180,543899,{UPARROW},713,542200,architector:builder,,,,,,,,,,MainProcedure,Was the male at the top or bottom?,15000,MainExperimentBlock2,male,architect
professions_englishA,2,1,"<?xml version=""1.0""?>\n<Clock xmlns:dt=""urn:schemas-microsoft-com:datatypes""><Description dt:dt=""string"">E-Prime Primary Realtime Clock</Description><StartTime><Timestamp dt:dt=""int"">0</Timestamp><DateUtc dt:dt=""string"">2017-02-01T11:51:26Z</DateUtc></StartTime><FrequencyChanges><FrequencyChange><Frequency dt:dt=""r8"">2338408</Frequency><Timestamp dt:dt=""r8"">183027155724</Timestamp><Current dt:dt=""r8"">0</Current><DateUtc dt:dt=""string"">2017-02-01T11:51:26Z</DateUtc></FrequencyChange></FrequencyChanges></Clock>\n",professions_englishA-002-1,60.061,1.0.0.107,female,1,right,Britain,English,-1655980684,Standard,2.0.10.353,2.0.10.353,02/01/2017,01/02/2017 11:51,11:51:26,2.0.10.248,93,male,dentist,,,FemaleTop,BottomPower,dentist,8,,,,,,,,,,,,,,,,,,,,,,,,,,,,,,,4,,assistant,1,,,,1,1,23,8,,0,0,{DOWNARROW},1181,545848,dentist:assistant,,,,,,,,,,MainProcedure,,0,MainExperimentBlock2,female,assistant
professions_englishA,2,1,"<?xml version=""1.0""?>\n<Clock xmlns:dt=""urn:schemas-microsoft-com:datatypes""><Description dt:dt=""string"">E-Prime Primary Realtime Clock</Description><StartTime><Timestamp dt:dt=""int"">0</Timestamp><DateUtc dt:dt=""string"">2017-02-01T11:51:26Z</DateUtc></StartTime><FrequencyChanges><FrequencyChange><Frequency dt:dt=""r8"">2338408</Frequency><Timestamp dt:dt=""r8"">183027155724</Timestamp><Current dt:dt=""r8"">0</Current><DateUtc dt:dt=""string"">2017-02-01T11:51:26Z</DateUtc></FrequencyChange></FrequencyChanges></Clock>\n",professions_englishA-002-1,60.061,1.0.0.107,female,1,right,Britain,English,-1655980684,Standard,2.0.10.353,2.0.10.353,02/01/2017,01/02/2017 11:51,11:51:26,2.0.10.248,94,female,judge,,,MaleTop,BottomPower,judge,6,,,,,,,,,,,,,,,,,,,,,,,,,,,,,3,,,,law clerk,1,,,,1,1,24,6,,0,0,{DOWNARROW},1715,548846,judge:clerk,,,,,,,,,,MainProcedure,,0,MainExperimentBlock2,male,law clerk
professions_englishA,2,1,"<?xml version=""1.0""?>\n<Clock xmlns:dt=""urn:schemas-microsoft-com:datatypes""><Description dt:dt=""string"">E-Prime Primary Realtime Clock</Description><StartTime><Timestamp dt:dt=""int"">0</Timestamp><DateUtc dt:dt=""string"">2017-02-01T11:51:26Z</DateUtc></StartTime><FrequencyChanges><FrequencyChange><Frequency dt:dt=""r8"">2338408</Frequency><Timestamp dt:dt=""r8"">183027155724</Timestamp><Current dt:dt=""r8"">0</Current><DateUtc dt:dt=""string"">2017-02-01T11:51:26Z</DateUtc></FrequencyChange></FrequencyChanges></Clock>\n",professions_englishA-002-1,60.061,1.0.0.107,female,1,right,Britain,English,-1655980684,Standard,2.0.10.353,2.0.10.353,02/01/2017,01/02/2017 11:51,11:51:26,2.0.10.248,95,female,chef,,,MaleTop,BottomPower,chef,4,,,,,,,,,,,,,,,,,,,,,,,,,,,3,,,,,,cook,1,,,,1,1,25,4,,0,0,{DOWNARROW},948,551076,chef:cook,,,,,,,,,,MainProcedure,,0,MainExperimentBlock2,male,pot washer
professions_englishA,2,1,"<?xml version=""1.0""?>\n<Clock xmlns:dt=""urn:schemas-microsoft-com:datatypes""><Description dt:dt=""string"">E-Prime Primary Realtime Clock</Description><StartTime><Timestamp dt:dt=""int"">0</Timestamp><DateUtc dt:dt=""string"">2017-02-01T11:51:26Z</DateUtc></StartTime><FrequencyChanges><FrequencyChange><Frequency dt:dt=""r8"">2338408</Frequency><Timestamp dt:dt=""r8"">183027155724</Timestamp><Current dt:dt=""r8"">0</Current><DateUtc dt:dt=""string"">2017-02-01T11:51:26Z</DateUtc></FrequencyChange></FrequencyChanges></Clock>\n",professions_englishA-002-1,60.061,1.0.0.107,female,1,right,Britain,English,-1655980684,Standard,2.0.10.353,2.0.10.353,02/01/2017,01/02/2017 11:51,11:51:26,2.0.10.248,96,male,assistant,,,FemaleTop,TopPower,dentist,8,,,,,,,,,,,,,,,,,,,,,,,,,,,,,,,2,,assistant,2,,,,1,1,26,8,{DOWNARROW},976,554733,{UPARROW},890,553249,dentist:assistant,,,,,,,,,,MainProcedure,Was the male at the top or bottom?,15000,MainExperimentBlock2,female,dentist
professions_englishA,2,1,"<?xml version=""1.0""?>\n<Clock xmlns:dt=""urn:schemas-microsoft-com:datatypes""><Description dt:dt=""string"">E-Prime Primary Realtime Clock</Description><StartTime><Timestamp dt:dt=""int"">0</Timestamp><DateUtc dt:dt=""string"">2017-02-01T11:51:26Z</DateUtc></StartTime><FrequencyChanges><FrequencyChange><Frequency dt:dt=""r8"">2338408</Frequency><Timestamp dt:dt=""r8"">183027155724</Timestamp><Current dt:dt=""r8"">0</Current><DateUtc dt:dt=""string"">2017-02-01T11:51:26Z</DateUtc></FrequencyChange></FrequencyChanges></Clock>\n",professions_englishA-002-1,60.061,1.0.0.107,female,1,right,Britain,English,-1655980684,Standard,2.0.10.353,2.0.10.353,02/01/2017,01/02/2017 11:51,11:51:26,2.0.10.248,97,female,factory manager,,,MaleTop,BottomPower,factory manager,23,,,,,,,,,,,,,,,,3,,,,,,,,,,,,,,,,,worker,3,,,,1,1,27,23,{DOWNARROW},787,558391,{DOWNARROW},1586,557092,factory_manager:worker,,,,,,,,,,MainProcedure,Was the female at the top or bottom?,15000,MainExperimentBlock2,male,worker
professions_englishA,2,1,"<?xml version=""1.0""?>\n<Clock xmlns:dt=""urn:schemas-microsoft-com:datatypes""><Description dt:dt=""string"">E-Prime Primary Realtime Clock</Description><StartTime><Timestamp dt:dt=""int"">0</Timestamp><DateUtc dt:dt=""string"">2017-02-01T11:51:26Z</DateUtc></StartTime><FrequencyChanges><FrequencyChange><Frequency dt:dt=""r8"">2338408</Frequency><Timestamp dt:dt=""r8"">183027155724</Timestamp><Current dt:dt=""r8"">0</Current><DateUtc dt:dt=""string"">2017-02-01T11:51:26Z</DateUtc></FrequencyChange></FrequencyChanges></Clock>\n",professions_englishA-002-1,60.061,1.0.0.107,female,1,right,Britain,English,-1655980684,Standard,2.0.10.353,2.0.10.353,02/01/2017,01/02/2017 11:51,11:51:26,2.0.10.248,98,male,proofreader,,,FemaleTop,TopPower,publisher,26,,,,,,,,,,,,,,,,,,,2,,,,,,,,,,,,,,proofreader,1,,,,1,1,28,26,,0,0,{UPARROW},1100,560252,publisher:proofreader,,,,,,,,,,MainProcedure,,0,MainExperimentBlock2,female,publisher
professions_englishA,2,1,"<?xml version=""1.0""?>\n<Clock xmlns:dt=""urn:schemas-microsoft-com:datatypes""><Description dt:dt=""string"">E-Prime Primary Realtime Clock</Description><StartTime><Timestamp dt:dt=""int"">0</Timestamp><DateUtc dt:dt=""string"">2017-02-01T11:51:26Z</DateUtc></StartTime><FrequencyChanges><FrequencyChange><Frequency dt:dt=""r8"">2338408</Frequency><Timestamp dt:dt=""r8"">183027155724</Timestamp><Current dt:dt=""r8"">0</Current><DateUtc dt:dt=""string"">2017-02-01T11:51:26Z</DateUtc></FrequencyChange></FrequencyChanges></Clock>\n",professions_englishA-002-1,60.061,1.0.0.107,female,1,right,Britain,English,-1655980684,Standard,2.0.10.353,2.0.10.353,02/01/2017,01/02/2017 11:51,11:51:26,2.0.10.248,99,male,footballer,,,FemaleTop,TopPower,referee,12,,,,2,,,,,,,,,,,,,,,,,,,,,,,,,,,,,footballer,1,,,,1,1,29,12,,0,0,{UPARROW},1011,562544,referee:footballer,,,,,,,,,,MainProcedure,,0,MainExperimentBlock2,female,referee
professions_englishA,2,1,"<?xml version=""1.0""?>\n<Clock xmlns:dt=""urn:schemas-microsoft-com:datatypes""><Description dt:dt=""string"">E-Prime Primary Realtime Clock</Description><StartTime><Timestamp dt:dt=""int"">0</Timestamp><DateUtc dt:dt=""string"">2017-02-01T11:51:26Z</DateUtc></StartTime><FrequencyChanges><FrequencyChange><Frequency dt:dt=""r8"">2338408</Frequency><Timestamp dt:dt=""r8"">183027155724</Timestamp><Current dt:dt=""r8"">0</Current><DateUtc dt:dt=""string"">2017-02-01T11:51:26Z</DateUtc></FrequencyChange></FrequencyChanges></Clock>\n",professions_englishA-002-1,60.061,1.0.0.107,female,1,right,Britain,English,-1655980684,Standard,2.0.10.353,2.0.10.353,02/01/2017,01/02/2017 11:51,11:51:26,2.0.10.248,100,female,professor,,,MaleTop,BottomPower,professor,16,,,,,,,,3,,,,,,,,,,,,,,,,,,,,,,,,,student,1,,,,1,1,30,16,,0,0,{UPARROW},1351,565182,professor:student,,,,,,,,,,MainProcedure,,0,MainExperimentBlock2,male,student
professions_englishA,2,1,"<?xml version=""1.0""?>\n<Clock xmlns:dt=""urn:schemas-microsoft-com:datatypes""><Description dt:dt=""string"">E-Prime Primary Realtime Clock</Description><StartTime><Timestamp dt:dt=""int"">0</Timestamp><DateUtc dt:dt=""string"">2017-02-01T11:51:26Z</DateUtc></StartTime><FrequencyChanges><FrequencyChange><Frequency dt:dt=""r8"">2338408</Frequency><Timestamp dt:dt=""r8"">183027155724</Timestamp><Current dt:dt=""r8"">0</Current><DateUtc dt:dt=""string"">2017-02-01T11:51:26Z</DateUtc></FrequencyChange></FrequencyChanges></Clock>\n",professions_englishA-002-1,60.061,1.0.0.107,female,1,right,Britain,English,-1655980684,Standard,2.0.10.353,2.0.10.353,02/01/2017,01/02/2017 11:51,11:51:26,2.0.10.248,101,female,employee,,,MaleTop,TopPower,employer,10,,1,,,,,,,,,,,,,,,,,,,,,,,,,,,,,,,employee,1,,,,1,1,31,10,,0,0,{UPARROW},1244,567705,employer:employee,,,,,,,,,,MainProcedure,,0,MainExperimentBlock2,male,employer
professions_englishA,2,1,"<?xml version=""1.0""?>\n<Clock xmlns:dt=""urn:schemas-microsoft-com:datatypes""><Description dt:dt=""string"">E-Prime Primary Realtime Clock</Description><StartTime><Timestamp dt:dt=""int"">0</Timestamp><DateUtc dt:dt=""string"">2017-02-01T11:51:26Z</DateUtc></StartTime><FrequencyChanges><FrequencyChange><Frequency dt:dt=""r8"">2338408</Frequency><Timestamp dt:dt=""r8"">183027155724</Timestamp><Current dt:dt=""r8"">0</Current><DateUtc dt:dt=""string"">2017-02-01T11:51:26Z</DateUtc></FrequencyChange></FrequencyChanges></Clock>\n",professions_englishA-002-1,60.061,1.0.0.107,female,1,right,Britain,English,-1655980684,Standard,2.0.10.353,2.0.10.353,02/01/2017,01/02/2017 11:51,11:51:26,2.0.10.248,102,female,restaurant owner,,,MaleTop,BottomPower,restaurant owner,28,,,,,,,,,,,,,,,,,,,,,3,,,,,,,,,,,,waiter,1,,,,1,1,32,28,,0,0,{DOWNARROW},1734,570726,restaurant_owner:waiter,,,,,,,,,,MainProcedure,,0,MainExperimentBlock2,male,waiter
professions_englishA,2,1,"<?xml version=""1.0""?>\n<Clock xmlns:dt=""urn:schemas-microsoft-com:datatypes""><Description dt:dt=""string"">E-Prime Primary Realtime Clock</Description><StartTime><Timestamp dt:dt=""int"">0</Timestamp><DateUtc dt:dt=""string"">2017-02-01T11:51:26Z</DateUtc></StartTime><FrequencyChanges><FrequencyChange><Frequency dt:dt=""r8"">2338408</Frequency><Timestamp dt:dt=""r8"">183027155724</Timestamp><Current dt:dt=""r8"">0</Current><DateUtc dt:dt=""string"">2017-02-01T11:51:26Z</DateUtc></FrequencyChange></FrequencyChanges></Clock>\n",professions_englishA-002-1,60.061,1.0.0.107,female,1,right,Britain,English,-1655980684,Standard,2.0.10.353,2.0.10.353,02/01/2017,01/02/2017 11:51,11:51:26,2.0.10.248,103,female,coach,,,MaleTop,BottomPower,coach,2,,,,,,,,,,,,3,,,,,,,,,,,,,,,,,,,,,athlete,1,,,,1,1,33,2,,0,0,{UPARROW},1296,573302,coach:athlete,,,,,,,,,,MainProcedure,,0,MainExperimentBlock2,male,athlete
